gx,gy,gz,ax,ay,az
0,0,0,0,0,0
5.1,-3.2,348,-0.6,0.2,-0.6
5.4,-2.9,347.3,-0.2,0.2,-0.4
5.5,-2.9,347.1,0.2,0,0
5.5,-3.2,347.1,0.4,-0.6,-0.2
5.2,-3.4,347,-0.2,-0.6,-0.2
4.7,-3.3,346.6,-0.4,-0.4,-0.4
4.7,-3.4,346.5,0.4,0.4,-0.4
4.9,-3.6,346.3,0.2,0.2,-0.2
4.9,-3.6,346.3,-0.2,0.2,-0.4
6.1,-4.2,346.4,-0.2,0.8,-7.4
5.3,-3.6,346.4,1.2,0.6,-1.4
5.1,-3.6,346.4,-0.4,0.2,-1.4
5.3,-3.5,346.4,-0.2,0.2,0.4
5.3,-3.5,346.4,0,0.2,-0.4
5.7,-3.7,346.2,0.6,0.6,-0.6
6.3,-3.9,345.7,0.6,0.8,-0.6
6.9,-4.1,344.7,1,0.8,-0.6
7.5,-3.3,340.5,1,1,-0.8
8.1,-1.8,333.9,-0.6,0.6,-2
8.4,-0.6,328.1,0,1.4,0.4
8.2,1.3,320.9,-0.2,0.2,-1.6
7.7,2.7,315.3,-0.4,-1.6,-0.6
7.1,3.6,310.7,1.4,-1.6,-1.8
6.3,4.6,302.1,-1.2,-1.4,-2.4
6.7,4.3,295.2,-1.8,0.4,-1.6
6.9,4.4,290.2,0,2.4,0.6
8.1,3.9,288.2,-2.2,2.2,-3.6
9.7,2.7,287.9,9.6,-23.4,35.4
11.5,-0.8,291.9,17,-1,16
13.7,-3.2,295.8,-7,-3.6,-29.8
13.1,-7.9,299.3,-3,-0.2,8.4
12.5,-11.8,305,7.6,-4,-6.6
10.1,-12.9,308.1,-5,-5.2,3.2
8.3,-14.3,310.8,-2.6,-1.6,-3.8
6.9,-14.9,314,1.2,0.6,2
6.4,-15.2,315.9,-0.4,0.4,0
6.3,-15.6,318.2,0.8,2.2,-1
6.5,-16.1,319.4,0,0.6,-2
7.5,-16.2,319.4,-2.2,4.8,-1.4
6.7,-18.4,327.7,8.6,-5.6,8.4
5,-17.7,335.1,-10.6,-4.8,-2.6
4.7,-17.4,338.2,4.4,-1.8,0.8
5.2,-15.4,337.4,-11.2,-0.2,-0.8
5,-12.6,337.2,2.4,3.2,-2.2
6.1,-14.9,339.6,1.4,2.4,0.6
9.4,-12.4,340,-8.2,9.8,1.2
14.3,-9.6,336.5,-2.6,0.8,-7
10.6,-11.7,337,10,-15,2.2
6.5,-13.4,339.2,-4.4,-3.2,0.8
5.1,-13,339.5,-4.8,-1.4,-3.2
4.5,-13.9,339.7,3,-1.2,3.6
4.3,-14.7,339.9,2.2,0,-1.2
4.1,-15.5,341.1,0.6,0.4,0.6
3.8,-15.3,342.2,-0.2,-0.2,-1
3.8,-15.2,342.2,0,0.2,0
4.5,-15,342.1,0.2,1.8,-0.2
5.8,-14,342.1,-1,0.4,0
6,-13.5,341.8,-1,-0.4,-0.2
6,-12.7,341.7,-0.4,1.4,-0.2
7.6,-11.7,341.5,-0.6,1.2,-0.4
8.1,-11.6,340.9,0.6,0.6,0.8
9.4,-12.2,339.2,2,2.2,0.8
11.9,-10.8,332.1,0.8,1.8,-0.4
14.1,-8.3,324.7,-3.8,0.2,-3
14.6,-8,323.2,1.4,-2.4,-0.8
14.9,-8.7,325,-2.6,0.2,-5
14.7,-9.3,326.4,1,-1.8,1.2
13.7,-9.7,331.1,-1.2,5,-0.2
12.4,-9.2,334.9,-10.2,-1.8,13.4
12.6,-9.3,343.2,-1,-4.6,6.6
13.3,-9,349.1,1.4,9.2,1.8
15.6,-5.1,348.3,-5.8,-4.2,-17
15.5,1.1,336.9,-0.4,-6.2,-17.2
14.5,4,326.9,8,0.4,7.6
15.2,5.7,316.4,1.8,2.4,5.4
14,5.1,310.5,-10.6,-12.8,3
10.4,7.6,303.4,2.2,-1.4,4
10.2,6.7,300.2,7.2,-4,2.2
7.7,6.3,296.4,-4.2,1.6,-2.4
7.3,6.3,294.9,-2.2,-2.8,-0.2
7.1,5.4,295.1,-3.6,2.4,4.2
8.4,4.4,296.8,-1.2,-1.8,3.6
9,3.3,298,3.8,5.6,7.2
9.8,2.8,299.7,-1.4,-4,0
10.8,2.1,303.2,0.4,9.6,2.4
11.4,2,303.1,0,22,-3.4
10.4,2.8,300.8,1.2,2.4,-6
10.5,2.8,299.1,0.4,-1,6.4
10.2,2.8,298.9,1.4,2.8,-2.6
9.8,2.1,298.3,1,-0.4,-4.6
9.4,2,297.1,-1.2,0.8,-11.6
10.6,1.9,296.4,3,1.4,1.6
10.8,0.4,297.8,-2.2,8.4,-3
11,-0.4,299.7,0.2,2.6,-3.8
11.2,-0.7,301.7,1.4,-2.2,8.4
11.4,-0.5,300.9,0,3,-4
11.2,-0.1,300.6,-0.8,4.4,9.2
11.2,-0.1,302,-1,0,-5.4
11.9,-0.4,303.9,-4.2,1.4,5.6
11.7,-0.3,304.2,2.8,-2.4,3.4
10.6,0.2,303.9,6.8,-3.2,26.4
10.1,0.8,303.7,-0.6,4.6,-27.2
12.1,2.4,300.6,-3,-3.2,-2.8
9.2,3.1,297.2,-0.6,0.2,49
10.3,3,296.1,-0.2,4.6,20.8
13.3,4.5,297.1,-1.2,-8.2,13.4
13.7,3.4,298.5,4,10.2,-31
12.7,2.4,298.7,2.8,-3.4,-10
12.6,1.5,299.8,4.4,2.2,9.6
11.4,0.5,301.3,1.6,10.2,-27.6
10.7,-0.2,301.5,-1,1.6,-22.4
9.4,0.9,302.1,2,19.6,-12.2
9.3,0.1,303.8,-4.4,-7.4,14.2
8.5,0,304,6,2.6,1.2
9.3,1,303,2.4,11.8,-5.2
10.3,1.7,300.8,-2.2,-7.2,11.6
8.7,2.3,300.2,3.4,-3.8,6
7.2,3.6,299,2.8,-13.4,-7
8.1,3.8,297.5,5.2,10.4,-14
10.7,5.1,294.5,-5.6,-7.8,-6
9.2,5.2,289.5,3.2,-2.6,10
9.4,5.3,286,3,55.6,26.2
12.3,3.7,285.4,5.2,23.4,2.6
11.2,1.7,286.9,1.2,-3,-0.8
11.3,1.5,288.8,-5.2,-1.8,20
10.8,0.7,290.2,-0.2,-5,6.2
10,1,289.2,-3.6,1.8,-15.2
10.7,0.5,287.2,7.2,-1.2,19
10.9,0.9,286.5,-1.6,-2.4,-11.4
10.4,1,286.2,3.4,-1.4,23.2
9.6,1.6,285.2,-0.4,-2,-9.4
8.8,1.7,283.2,-1.8,0.6,2.8
8.8,1.4,282.5,-0.2,-8,8
10.1,0.5,282.8,-1,-2,7.2
10.2,0.8,283.6,2.2,-1.6,11
7.6,-0.2,284.5,2,3.8,-8
8.2,-0.5,284.1,-0.8,3.4,3.2
8.3,-0.9,284,-6.4,-2.2,19.8
6.8,-1,284.8,-3.6,4.2,-0.4
5.8,-1.3,285.4,7.2,6.4,17.2
7.3,-0.8,284.9,5,-14.4,8.2
6.6,-1.8,285.2,-3.4,-12,17.8
6.7,-0.4,286.8,2,-7,-16.4
4,0.4,287.4,2,4,23
7.8,1.2,287.8,-6.8,-1.6,-14.4
7.9,1.6,289.7,-0.6,5.4,-24.6
8.4,2.3,289.8,-2.2,-12.2,-25.8
7,2.8,289.8,-0.2,-0.2,-5.6
6.4,3.3,289.6,0.4,-1.8,-1.2
5.5,3.3,288.2,1.8,10.2,0.2
6,3.1,287.4,2.2,1.2,-5.4
6.2,3.6,286.8,0.4,-9.6,1.6
5.9,3.5,285.9,-1.2,-3,-7.2
6.5,3.2,284.8,5,3.2,8.2
5.2,3.2,283.7,1.8,1,-13.4
6.2,2.8,283.4,-1.6,3,9
6.6,2.9,284,3,4,-23
6.8,2.5,283.7,0.6,8.2,-7
7.6,2.2,283.3,-0.4,10.4,-0.2
5.7,1.1,283.7,-1.4,-19.6,32.4
8.4,1.3,285.3,0,-1.8,31.2
6.5,0.3,286.1,2.8,-3.2,-0.2
6.9,0,285.9,-2.8,-4.2,-13.4
8.3,0.6,284.1,5.4,6,-8.6
8.1,1,280.9,2.2,-0.4,3
8.4,0.5,279.6,-2.4,-2.4,-7.6
6.7,-0.5,279.9,-1.2,-1.8,15.2
7.8,-0.9,281.4,-5.6,-2.6,-6.6
7.8,-0.9,283.2,-0.2,11.4,9.8
8.2,-1.2,286.3,-1.2,-7.4,4.2
7.2,-0.9,288.1,-0.6,2.2,-2.6
7.7,-0.7,289.7,-1.6,15.2,-0.8
9.6,-1,289.9,6,0,-19.2
8.6,-0.2,289.1,0.8,2.4,5.8
8.5,0.4,288.7,-3.2,-0.8,1.8
8.2,1.3,287.9,2.2,-13.2,36.2
8.4,2.1,286.8,0.4,-1.6,-18.4
8.6,2,285.9,1.8,-9.6,29.6
10.1,2.8,285.2,-1.8,6.4,-25.6
10.2,2,285.4,0,32,8.4
9.4,1.8,285,0.8,7.8,-1.8
10.5,1.6,284.1,-2.6,-2.4,-19
8.8,0.5,285.5,1.2,-6.4,5.2
8.6,-0.1,286.3,-0.6,3.4,-9
8.4,-0.7,286.9,4.2,3.6,5
8.1,-0.2,286.6,3.2,-7,8.8
7.5,-0.1,286.4,0.4,3.8,-4.2
8.3,0.4,286.9,0,7.4,-23.4
7.4,0.3,287.3,-0.4,0.2,-1
8.4,0.4,287.6,-0.4,-2,10.6
8,0.4,288.7,0.2,4.6,-20.8
4.6,0.7,288.6,-1.2,-5.6,14
6.6,0.9,288.5,2.8,-1.2,5.6
6.6,1.5,288.4,-1.2,-2,-18.8
6.4,1.5,288.5,1.8,9.8,6.6
6.2,2,287.6,1.6,-10.2,9.4
6.4,2.9,286.3,-0.4,3.2,-9.8
6,2.9,285.4,-1.6,0.8,-7.8
7,2.3,285.7,1.6,-1.2,11
6.8,1.9,285.7,-0.4,4,1
7.7,1.9,285.4,1,-2.2,-2.2
8.1,1.4,285.2,1.8,-5,27.8
8.1,1.1,285.3,-2,-3.8,-5.8
7.8,0.8,285.3,1.4,6.6,2.4
8.3,0.2,285.7,-1,2,-1.8
8.7,-0.2,286.1,2.4,0.8,-3.8
8.2,-0.8,287,-0.8,3.4,-24.2
6.8,-0.8,287.8,-0.8,-20.4,11.4
8.6,-0.4,289,-2.6,-0.6,-12.6
10.6,-0.2,290.2,0.8,-44.8,8.8
9.6,0.5,291.4,0.8,-3.4,3
11.2,1.2,291.9,0.8,11.4,-5.2
10.5,2.1,291.2,2.4,-1.8,17.8
10.8,2.3,289.1,4,6.2,-15.4
7.3,2.3,288.1,0.4,6,-21.2
7.4,2.5,286.8,-1.4,-12,14.6
13.5,3.3,286,-7.4,-12.4,-54.4
12.1,1.9,285.5,5.6,-9.8,6.4
7.5,2.6,285.7,0.6,-2.8,30.6
6.8,2.6,286.1,-8.4,11.6,15
6.9,1.1,286.2,4,-7.4,30.8
5.6,1,286,-1.4,12.2,-18.4
10.8,1.8,285.6,-2.8,6.6,-41
9.6,0.3,285.9,-1.4,-4.6,23.8
10.5,0,286.4,2.4,4,-14.2
9,0.4,286.4,1.6,-3,-2.8
7.6,0.8,286.8,2,6.8,-3.4
8,1.3,286.4,-3.2,-3.8,-10
7.6,1.1,285.5,2.2,-2,-3.2
7.6,0.9,286,-0.4,-0.8,15
7.6,0.8,286.3,-3.6,7.2,-10.2
9,-0.6,285.9,1.4,8.8,36.2
7,-0.4,285.5,4.4,-23.6,41.4
5.4,-0.7,285.1,7,-2,38.8
7.3,0,285.3,-0.4,-1.6,9.2
6.7,-0.9,285.6,3.2,-6.2,20.6
6,-0.7,286.5,5.2,-13,7.6
9.1,-0.5,286.9,-0.4,14,-26.8
10,0.5,287.2,2.2,3.4,20.6
7.6,-0.3,285.2,-11.4,-37,33.6
12.2,-0.5,285.4,-0.2,10.4,-43.8
11,-1.6,287.3,3.2,6.4,-1
7.4,-2.7,288.9,-2.6,38,19.2
10.3,-0.9,289.3,-8.6,-5.8,-7.4
9.1,-0.4,290.2,2.6,33,21.2
7.6,1.5,288.9,0.4,17.8,6.8
8.5,1.9,288.4,5,-3.4,-2.6
8.6,1.3,287.7,3.4,3.8,13.4
9.2,1.8,287.4,1.2,-2.8,-38.8
10.2,1.2,287.2,-4.2,1.2,5.6
7.5,0.8,287.4,0.4,12.4,-2.6
9.9,1.3,287.8,-1.8,6.4,-27
8.7,0.8,287.4,-6.4,1.6,1
7.5,0.8,287.6,-1.2,7.2,-11.6
8.2,1.9,287.4,-2.4,6.4,-12
7.3,1.2,286.9,-0.4,8.2,-5
8.7,0.8,287,-4.6,-16.4,-36.2
6.2,1.2,286.5,5.8,-6.6,44.4
11.4,1.2,286.4,-0.4,-36.2,-25.4
9.3,0.8,286.8,4.2,-3.4,-15.2
8,0.6,286.7,-2.8,-3.4,-7.6
8.5,1.1,286.3,1.4,4.8,-9.4
9.2,0.6,285.8,-2.6,-2.4,-16.4
7,1.2,285.6,-2.4,-2,14
8.4,1.4,286.2,-1,2.2,-27.8
7.7,0.9,286.1,0,2.4,-2
8.1,0.3,286.1,3.4,2.6,3.8
8.4,-0.7,286.5,0,8.4,1.8
9.8,-0.2,286.9,0.6,-6.4,23.6
7.6,-1,287.5,2.2,15.8,8.2
10.4,-0.9,288,-1.4,-4.4,5
9.4,-1.3,288.3,-3,-1.8,-12.6
10.5,-1.2,290.1,-2,-16.8,18
5.6,-2,290.9,-6,-12.8,-48
5.6,0.4,292.1,6.8,38.4,-1
9,1.4,292.7,-6.6,7.8,-29.6
6.6,1.4,292.5,5.6,2.2,-1.4
7.5,2.9,291.6,-3,1.6,-6.8
7.7,3.1,291,3.8,-0.4,6.8
7.7,3.9,290,-0.6,-0.2,1.6
7.7,4.1,289.6,-0.8,-3.8,8.4
7.7,3.8,289.3,-1,-11,-6.2
7,3,288.1,2.4,1.4,10.4
7.3,2.3,287.2,2.6,0.4,-1.2
7,2.4,287,0,-0.6,5.2
7.6,2.1,286.6,-1.6,-5,-1.2
7.6,1.4,286.6,0.2,-3.8,-1.4
6.8,1,286.6,0.2,1.4,10.8
6.8,0.4,286.9,-0.8,-5.8,-0.4
7,0.2,287.2,1,-4.8,3.2
7,-0.3,287.1,0.8,3.6,-9.4
6.5,-1,287,3.2,5.4,3
6.6,-0.7,287.7,0.4,0.6,4.8
6.4,-0.7,288.3,1.2,-3.6,2.2
7.5,-0.6,288.6,1,-14.4,7.2
6.2,-0.8,288.5,-0.2,-2.4,-4.8
7.1,0.3,288.3,-1.4,0.8,8.8
8,0.3,288.2,-1,-1,-12
7.4,0.2,287.9,-0.8,3,-2
7.7,-0.6,287.9,2.4,7.4,-6.6
7.8,-0.7,287.9,-2.4,-3.6,3.6
6.5,-1,288.1,-0.6,10,-2.6
5.9,-0.9,289.2,-1.6,-9.8,41.6
8.2,-1.5,289.7,-2.6,12.8,-11
7.2,-1.6,289.9,-1.2,-0.4,13.2
4.4,-1.3,291.5,-2.6,-16.6,68.6
4.3,-1,292.5,-3,-10,-23.2
7.7,-1,293.3,3,-17,-19.8
5.8,-0.9,294,3.2,4.2,10.4
6.1,0.2,294,-4,-14.6,33.6
6.1,1.3,295.3,1.8,-16.2,27.8
8,2.6,295.7,-0.6,0.2,-8.8
7.4,3.2,294.3,3.6,-2.6,2.2
7.7,3.5,293.5,1.4,1.6,-2.6
7.1,3.9,292.3,-1.4,-1.2,6.6
8.1,3.6,292.4,-0.8,2.8,-12.2
5.9,2.7,292.1,3,-0.4,43.8
7.2,2.2,291.3,-7.6,6.4,-27.4
8.2,2.9,291.2,-0.2,-9.6,-29.2
6.4,2.4,291,-9.6,-18.8,-38.8
5,3.6,291.2,-6.6,1,20.2
6.8,3.6,291.3,6.8,17,-21.8
4.5,3.5,290.4,1,-2.4,31.8
5.4,2.8,289.7,6.6,7.8,3.2
7.6,1.9,289.8,2.2,-2.2,19.2
7.8,2.1,290.1,-0.8,-0.8,15.8
8.6,2.5,290.3,-1.2,-3.6,2
8.3,3.5,289.8,1,-6.8,-1.8
8.6,4,289.4,1.6,7.4,-11.8
9.2,4.3,288.6,-0.2,3,-8.4
9.4,5.1,287.5,0.8,-10,-1.2
8.3,5.9,286.1,5,-3,23.8
8.3,6,284.2,6,-4.8,17
7.2,6.2,282.2,-1.8,-8.2,21.6
8.3,5.9,278.1,0.2,-8,29
7.8,3.9,276.7,2.6,10.4,27.4
9.4,3.3,275.1,-0.8,-1.2,-14.6
8.6,0.6,275.3,-1.2,1.8,-10.8
9.2,-1.4,276.9,-4,4.4,-19.8
7.6,-2.8,277.8,-1,9.4,5.2
7.4,-4.9,278.7,0.6,-3.4,-9
8.1,-6.5,280.2,2.2,-15.4,11.8
7.7,-7,281.7,-7.2,1.8,2.8
7.5,-5.6,285.9,0.4,6.8,23.2
7.5,-4.7,287.6,3.2,7.8,42.2
12,-3.8,290.2,-5.8,1.2,-61.2
5.2,-3.2,292.3,-0.6,-4.4,34.8
10.2,0.1,293.2,3,-1.6,7
8.2,1,291.7,1.8,-3,26.8
8.6,2.6,290.1,1.2,0.6,8.6
8,4,288.7,2.8,-7,11.2
8.6,5.3,286.9,2.2,0.6,-7.8
6.1,5.3,285.4,0,2.6,23
6.9,5,283.8,2.6,6.2,0.2
8.3,4.4,282.3,4,2,-10.6
7,2.8,280.6,0,-2.4,0.8
8.3,0.9,279.7,0.8,-7,17.8
8.2,-0.3,279.4,0.6,-3.6,-21
7.8,-1.7,279.6,-6,1.8,-10.6
7.5,-2.3,281.5,-6.2,12.6,-15.6
7.5,-3.4,282.8,-8,21.2,-39.8
7.5,-2.6,284.5,-6.6,17,16
10,-2,287,-5.4,-14,-14.8
7.7,-1.4,288.8,0.4,2.6,3
4.9,-0.8,289.5,3.8,3.2,-4.6
5.7,1.1,288.7,-5.2,12.8,-2.6
5.7,2,287.5,-0.6,12.2,12
5.3,3.1,287.1,-1,-14.6,-41.4
1.1,2,287.4,4,12.2,36.8
4.7,2,286.9,0.4,2,-31.6
4.1,2.2,286.9,2.4,-4.6,-2.4
4,2.2,286.1,3.6,10.8,-11
5.4,2.5,286.4,4,-10.2,-8.6
8.9,1,287.2,-1.2,-17.2,-9.8
9.3,0.7,287.3,0,2,8.6
11.2,1.1,287.5,-2.2,-10,-10.6
9.1,0.2,288,0.8,-9,26.2
11.9,0.6,288.5,0.2,0.2,8.6
10.1,0.1,289.3,1.2,-14,3.8
9.1,0.2,289.1,-2.2,11.2,-17.2
8.6,-0.2,289.2,0,12.8,-13
10.6,0.7,289,-0.4,-4,-7.8
8.6,1.1,289.3,-2,-5,-21.8
7.1,2,289.7,0.4,3.2,-14.6
7.3,3.6,288.7,10.4,7.8,26.4
4.4,2.8,287,-2.6,13.4,-6.4
4.7,2.9,286.5,1.4,2.6,-9
6,2.2,286,2.4,9.4,-3.4
7.9,1.5,285.8,0.8,9.6,11.4
8.9,0.1,286.4,-0.6,0.6,20.6
9.2,1,286.7,0.2,-4.8,-0.6
6.8,0.2,287.7,1,4.8,-3.6
3.2,1.1,287.5,0.4,9.4,28
7,1,285.9,3.4,-10.8,-39.2
3.3,1.2,284.9,-8.2,1.6,-18
2.4,-0.4,285.3,0.8,-2,2
4.2,-2,286.5,-0.2,1,-5.8
6,-2.3,286.9,-9,-11.6,-13.4
6,-2.5,287.8,-5.4,3.8,20.8
6.5,-1.8,288.8,1.6,12.6,3.8
6,-1.5,289.9,-3,-2.6,1.2
5,0.1,290.2,-0.8,2.2,32.8
5.8,1,290.3,-0.8,14.2,6.4
7.1,1.3,289.4,2.4,-8.4,-35
5.1,0.6,289,-3.4,4.2,2
7.7,1,289.1,2,-16.4,13.8
7.1,0.9,289.5,-6.4,-1.2,-1.6
7.3,1.6,289.7,-3.2,7.2,12.2
8,2.5,289.9,-6.6,12.8,-25.2
9.6,1.5,290.3,7,-7.4,-14.6
8.7,1.2,290.7,-0.6,-3.4,6
10.4,1.4,290.7,-2,0.6,-1.2
12.3,2.4,290.2,5.6,5.8,0.2
13.5,1.2,289.7,1.2,5.4,-6.2
12.6,2,288.8,0.4,-10.2,39
12.9,2.4,288.6,-0.4,1.2,1.8
11.4,2.3,288.6,-2,2.6,-14.4
11.1,2.3,288.4,2.6,-7.6,-7.8
13.6,0.8,288,2,-22.4,81.8
14.6,-0.4,287.1,2.2,-8,-6.8
17.6,-0.2,287.1,-4,-32.6,-34.8
13.3,-1.2,287.7,1,14.2,-14.8
14,-0.9,288.1,-5.2,-3,10
10,-0.6,289.3,3.8,5.4,3
9.1,-0.6,289.5,-0.8,-0.4,11.6
9.3,0,289.2,-2.8,-18.4,-1
6.8,0.3,289.8,0.2,12.6,-12.2
8.9,0.5,290.2,-0.4,8.8,-48.4
2.2,-0.4,290.3,7,3.2,65.4
4.3,-0.2,289.8,-10.6,12,-3.2
6.2,-0.1,289.5,14.4,38.4,-3.2
4,-0.4,290,-1,25.8,12.8
6.5,-0.7,289.8,-1.4,-6.2,6.4
7.7,-0.5,288.8,3,-4.6,-11
10.5,-0.4,288.4,-4.2,-37.4,53.2
3.5,-0.6,288.3,-6.2,-6,-11.2
4.7,-1,289.2,-2,39.4,13
5.2,-1.3,290.6,5.4,-1.2,-6.4
4.8,-1,291.2,3.2,1.2,-2.6
5.6,0.3,291.5,-1.4,8.8,-3.2
3.5,-0.2,291.3,3,-11.8,28.2
6.8,1.3,290.7,2.8,-2.6,-8.8
7.9,1,289.7,2,-3.4,-34.4
6.3,1.3,288.8,-3.4,12,19
7.1,1.1,288.7,-1.2,16,-20.6
8.8,0.8,289.1,-9.2,2.8,-43.6
6.8,0.2,290.1,5.2,3.2,62.8
5.5,1.6,291.1,0.2,6.6,-29.4
6.7,0.1,291.8,1,-3.8,-40.6
6.1,3.4,291.3,-4.8,-6,15.2
6.6,2.3,290.9,-0.8,22.8,-4.6
10.5,2.5,291.1,4.4,-16.8,-60.6
2.1,2.6,290.3,-0.6,-50.6,120.2
1.3,3.3,289.1,11.2,95.6,133
2.7,3.1,287.9,12.8,-16.6,70
9.5,3.7,288,-2.6,37.8,-76.2
3,1.9,289,-2.4,-15.8,28
6.1,1,289.4,-3.2,3.6,-19.2
5.1,0.3,290,-2.8,30.8,23
5.7,1.2,291,-9.4,-12.2,-7.8
5.5,0.6,292,2,-4,9.2
7.8,2.7,293.6,-0.8,24.6,-9.6
10.4,2.9,295.1,2.6,5.2,-15.8
12.8,3.5,295.8,4.2,-10.6,-27.6
11.3,4.2,294.3,15.8,-3,-9.8
10.4,5.6,290.6,1.6,-10,-9.2
10.9,6.8,285.8,-3.2,-0.2,-20.4
6.6,6.7,282,6,3.4,46
10.9,6.1,277.4,-5.2,8.2,-47.2
11.3,4.2,276.5,-8,-6.4,-64.2
11.2,1.8,278,-2,4,-45.6
7.7,-2.5,280.8,1.4,-6,-11.8
5.6,-4.4,282.9,-5.2,-4.8,12.6
9.1,-5.4,286.2,-0.6,-2,-28
13.7,-6.8,289.5,-8.2,-55.8,-6.8
10,-6.7,292.6,-1.6,-5.4,-32.4
6.1,-5.1,294.6,4.8,21,43.8
6.5,-2.4,296.1,-3.6,-1.8,-3.4
4.3,-1,296.8,-4.6,0.6,22.8
6.2,1.3,297.1,-1.6,16.2,-7.6
7.7,2.7,296.3,-9.6,-4.2,-11.2
7.8,5.8,293.9,-1.6,27.4,48
7.5,4.4,292.5,-6.4,-10.2,-146
9,5.8,290.4,8.6,-27,13.6
11.6,6.1,289,6,-6.4,12.8
11.2,4.9,289,-14.2,-50.2,-33.4
11.8,5.8,287.8,6.4,-6.4,11
8.5,5.2,288.2,-0.2,-4,5.4
8.2,3.9,288.1,5.6,16.4,-12.2
5.4,2.8,287.8,5,-13,28.8
3.5,3.6,288.2,-6,0.4,21.4
5.5,3,288.7,1.8,-6.2,-43.2
2.4,2.4,290,11,0,63.4
6.7,2.5,289.5,-8.8,-26.8,-55.4
0.3,1.6,288.9,-2.6,3.8,45.4
3.5,1.6,287.3,-7.2,-1.6,27.8
1.9,0.8,288.8,-2.2,-1.2,11.6
2.8,1.3,289.9,-2,16.8,26.2
3.5,2.1,291.8,-7,-12.8,-30.4
6.2,3.1,291.9,-1.8,-21.6,38
5.3,3.4,291,0.8,11.6,-17
8.2,3.3,290.6,-0.2,-23,37.4
4.9,3.2,288.2,-0.2,-3.4,-14
7,4,287.6,-0.2,16.8,-30.2
4.8,3.9,288.2,2,10,1.8
6.6,2.7,288.1,-2.4,-47.2,-0.4
4.2,1,288.2,-5.4,2,-8.4
6.3,1.9,288.7,7.8,26.4,-26.2
2.3,1,289.1,5,-6.2,13.2
6.7,2.6,289,-6.4,-48.6,-37.6
8.2,3.1,288.9,6.6,13.2,22
8.6,2.3,289.8,9.6,6.6,3.2
7.8,0.9,289.8,4.8,-14,11.6
7.4,0.9,289.9,-10,26.8,-7.2
7.3,0.1,289.8,6.2,-47.2,14.2
8.1,-0.3,290,7,24.6,10.6
8.8,0.4,289.9,-0.2,-10.8,-8.2
9.9,0.4,289.8,3.4,-16,-13.8
7.7,-0.8,290.2,1.8,7,-15.4
7.2,-0.2,290.9,1.2,-6,9.6
6.5,0.2,290.7,-3.4,-13,27
8.2,1.1,291.1,0,2.2,-8.6
8.4,0.7,291.8,1.8,8.4,-11.6
10.5,-0.1,291.9,3.6,-2.8,-1.2
9,1.4,291.4,-0.4,-9.8,8
8.7,2.3,290.4,-2,1.8,-12.2
8.6,1.3,290.5,1.8,9.8,-18.4
7.4,1.2,290.8,8.6,-5.8,52.6
8.5,0.7,291,4,17,17.4
8.9,0.9,290.5,0.2,-5.4,2.4
9.1,0.8,290.4,0,-10.4,9.2
9.3,1.1,290.7,-2.8,8.6,-2.6
8.8,1.7,290.7,4.8,5.2,6.2
9.9,1.3,290.5,-0.2,2.2,-24.2
7,0.6,290.6,2.2,4.8,3
5.8,1.1,290.8,0.4,7,15
7,1.9,290.4,-3.2,10.4,-24.8
2.9,1,290.2,2.6,-0.4,38.6
3.2,1.1,289.9,5.8,7.8,22.6
3.1,0.9,289.3,1.4,-6.2,-1.6
4.9,0.3,288.6,-3.2,-9.4,-8.6
3.9,-0.2,288.3,-1.8,-4.8,10.6
4.8,-0.5,288.7,-1.8,-6.2,-7.4
3.8,-0.6,289.1,1.4,-4,1.8
3.7,-0.6,289.8,1,7.2,-5.8
2.7,-1.2,290,2.4,-1.8,-9.4
3.4,-0.3,290,-0.2,8.4,-11.6
3.1,-0.2,289.9,-1.2,0.2,3.8
3.6,-0.3,289.8,0.6,-11,-23.4
3.1,-0.3,289.2,9.4,8.8,9.2
2.9,0.6,289,-1.6,-8.6,21.6
3.9,0.4,288.3,-0.6,-4,-1.8
3,0.2,288,4.2,3.4,0
2.4,0.4,287.4,-0.6,-1.6,0.2
3,0.4,287.1,-1.6,-5,-15
1.6,0.1,287.3,-1,3,6.8
1.9,-0.4,288.4,2.6,-0.8,-4.6
2.1,0.3,288.3,-2.6,-5,3.8
1.8,-0.2,288.1,1,3,1.4
1.6,-0.2,287.9,-0.2,6.4,-0.6
1.1,-0.5,288.2,1.4,1,1.4
0.7,-0.2,289.4,0.4,2.6,-1.8
1.5,-0.4,291.1,1,2.8,-3.2
1.2,0.1,292.5,-3.4,-1.4,15.2
2.1,0.2,293.3,-1.4,-5.6,-10.8
0.4,0.7,293.2,-1,4.4,4.6
0.7,1.1,291.6,2.4,-1.6,-6
0.3,1.3,289.7,-1.4,-5.4,2.8
0.8,1.5,288.5,-2.2,-1.8,-1.2
0.3,1.5,289.3,-0.4,0.4,6.4
0.4,1.6,289.7,-3.2,0.8,-0.4
1.7,1.5,289.6,-1,6.4,-4.6
3.2,0.9,287.8,2.8,2.2,-4
3.9,1,285.6,0.2,0.8,0.6
4.4,0.9,285.1,2.4,-0.8,1
4.7,0.5,286.1,-0.6,-5.8,0
4.6,-0.3,287,3.2,4,12.6
4.8,-0.4,288.2,1,5.4,-5.8
4.5,-0.7,289.5,0.6,-9.6,8.6
4.2,-0.8,291,-3.8,-2.4,-4.2
4.4,-0.9,292.9,1.6,3,-2.4
5.4,-0.5,294.6,-0.6,-5,2.6
5.4,-0.6,296,-0.4,-0.8,-2
5.6,-0.3,295.8,2,-2.6,-5.8
5.7,-0.5,292.4,-3.6,-0.2,-7.4
5.9,1.1,287.4,3.4,1.6,3
5.6,1.7,282.6,-0.2,1.4,-8.4
5.4,2,280.2,-0.8,-0.2,-3.6
5.1,1.6,279.6,-0.8,-5.8,1.4
4.3,1,281.8,0.2,-5.4,0.2
4.1,0.5,287.5,-3,2.2,-13.4
3.9,-0.1,289.4,-0.2,3.4,-2.8
3.3,-0.2,290.1,1.4,0.6,8.2
5.2,-0.1,288,-0.6,0.4,-7
5.4,0.3,287.2,-0.4,0.4,7
4.9,0.1,288.6,0.6,-2,3.4
6.7,0,289.7,-2.8,-0.4,6.4
6.7,-0.2,287.6,2.6,4.4,-2.8
7.2,0.2,285.8,-6.8,-7.2,15.4
7.1,1.3,287.2,-2.8,1.4,-10.4
7,0.5,291.1,-2.8,-3.6,-3.2
7.6,-0.3,292.5,1.2,3.6,4.8
7.7,-0.4,294.3,0,7,5.6
7.9,-0.6,294.9,2.6,0.6,-5.2
8.6,-0.3,294.9,1,8.4,-10.6
10.5,-0.3,294.5,0.6,-1.2,-0.4
10,-0.2,294.4,-4.4,-8,-1.4
10.1,0.4,295.4,-3.8,-13.4,7.4
11.7,-0.2,298.3,-0.4,9.6,-7.4
10.8,0.1,298.6,6.4,-1.4,34.4
11.5,0.7,296.6,0.4,-9,-27
13.1,2,293.9,1.8,-7.6,19.8
13.4,2.2,294.7,1.2,-3.2,-10.6
10.5,2.2,294.5,-1.2,-10.2,10
10.8,1.8,294.5,-1.8,-2.4,-17.2
10.5,1.9,294.6,3.4,2.4,-20.6
9.7,1.3,294.5,3.6,0.4,18.8
11.2,2.5,293.8,-7.6,-5.6,16.6
10,3.2,292.9,-1.4,-6,-3.6
11.8,2.5,292.9,2.8,12.6,-10.2
13.9,2.2,293,-2.4,0.8,24.6
14,2,293.6,-1,0.8,-4.6
14.3,1.4,295.7,-0.6,17.4,-8
15.8,1.1,296.6,0,8,-2.8
16.2,0.8,296.9,4.4,-1.2,-11.2
13.6,1.8,295,1.8,1.8,5
14,1.9,295.5,-2.2,-0.2,-14.6
14.2,1.9,295.1,4.2,2.4,8.8
14.6,2.3,294.9,-2.6,-2.6,-14.2
13.9,1.6,295.5,0.2,0.8,4.8
13.3,2.4,293.3,2.2,-4.8,3.8
13.3,2.8,289.9,1.8,0.2,-15.8
13.2,1.9,289.5,0.8,0.2,2.2
12.8,1.4,292.5,1.2,7.6,-16
15.8,-0.4,294.8,2.8,-15.2,-22.4
15.1,1.5,296.8,-5.4,2.2,-16.6
14.6,1.7,297.9,-4.8,-6,-17.8
10.1,2,299.5,0.4,-11.4,33
13.8,2.5,301.5,-1.2,6.2,-3
13.7,2.9,300.1,7.2,-3.8,-4.6
11.9,3.9,295.1,2.8,-7.4,-0.2
9.4,4.4,289.8,0.2,6.6,1
12.3,5.4,284.6,-3.2,-12,-0.6
15.6,4.3,281.7,12.2,35.8,-63.6
16.4,1.8,281.8,0.6,5.6,55.2
15,-0.5,284.3,-9,6.2,-39.8
9.1,-1.7,286.5,7,34.8,73.6
14.5,0,286.7,-10.4,-13.2,-52.8
9.6,-1,287.7,-3.4,-22,-16
9.2,-1,288,-0.6,3,-6.8
9.8,-0.9,287.5,1,8.8,12.8
8.3,-0.1,286.4,5.4,15.4,20.8
7.4,-0.2,287.4,-1.4,21.8,-9.2
11.2,-0.4,288.5,-1.8,-15.6,36.4
11.3,-2.8,289.7,-5,2.8,0.6
9,-1.7,290.7,0.4,-4,33.4
10.9,-0.7,291.9,-2.2,13.6,-27.2
9.9,-0.7,292.8,-6.8,1.8,36.2
11,0.5,292.8,-1,-6.2,-21.2
12.5,1.7,291.7,4,-15.8,28
10,1,290.9,-2.2,-21.6,22.8
7,1.9,290.2,1.2,-16.4,57
10.3,2.1,291,-8.4,-4,10
12.9,-0.5,291.6,-8.4,8.2,-29
10.4,-0.6,293.2,-7.4,-12.6,-26.4
8.2,-0.8,293.8,2.8,-11.2,25.2
10,0.3,292.7,1.4,6.8,5.4
9.1,1.4,292.5,-1.4,24.8,31.8
12.3,0.2,291.9,3.8,-12.8,5
8.5,0.2,291.3,4.2,-0.4,30.4
10.8,0.3,290.7,-2.2,-20.6,30
6.1,0.7,290.6,-1.8,0.2,81
8.7,0.4,290.3,-4.6,1,-63.4
2.2,-2.8,291.5,10.2,5.2,23.2
6,-1.3,293.6,-4.4,6,13.2
6.3,-1.3,294.1,-4.8,-15,-29.2
11.7,-1.2,295.1,-11.6,-17.4,-119
3.9,-0.2,296.6,-0.2,-22.6,89.2
7.8,-1.4,297,5.4,-5.4,-18.6
7.4,0,295.6,-4,9.2,-26.4
8.4,1.3,295.2,-2.6,-17.6,18.4
4.5,-0.7,295,-1,-11.4,0.6
8.3,1.4,294.7,-8,1.4,-46.6
8.8,0.9,294.4,8.2,1,23.8
11.1,1.9,294.5,2,-9.8,-10.8
9.6,0.1,295,-2.6,-9.8,6
6.2,1.4,295.7,-3.8,-2,4.2
5.9,1.4,295.2,1.8,-10.2,12.4
11.1,2.5,294.1,5,-14.4,-45.4
3.6,4.2,293.6,10.2,5.2,81.2
8.1,2.9,292.1,8,6.6,45
4,3.1,291,-2.8,-6.8,92.4
7.9,2.6,290.6,2.8,2.6,-46
6.7,2.1,290.5,13,-3.8,43.6
8.1,1.3,290.2,-5.8,17.6,-35.8
7,1.6,290.8,0,-12.2,-5
8.3,1.1,290.7,0.2,-10.8,17.8
8.4,0.7,292.4,1.4,-6.8,0.8
6.6,-0.5,294.2,3.2,6.2,-3.6
7.1,0.9,294.6,-4,1,-6.8
6.6,1.3,294.6,3.8,-14.8,11.8
5.9,0.9,294.5,3.6,-6.6,14.2
5.2,0.9,291.8,-0.6,-10.2,30
6.3,1.6,289,-1,3.2,-23.8
7,2,288.6,-3,-7.4,-2
7.2,1.9,289,-9.4,-18.6,-5.4
5.1,0.9,289.3,-3,5.6,13.8
10.9,-1.3,289.9,-8.4,9.4,-105.8
-2.1,-2.2,290.5,-4.6,-47.2,-33.8
5.7,-2.6,292.6,-4.4,14.6,-85.6
1.6,-4.4,294.8,5.6,-6.8,-53.2
2.9,-3.5,296.4,3.8,2.6,14
5.6,-2.2,296.6,5,3.6,-17.6
5,-0.2,295.5,1.2,12.8,7.8
8.1,0.2,293.8,-2.2,13.4,4.4
7.4,0.5,292.6,-5.6,-3.6,19.4
7.1,1.4,291.6,-1.6,16,-26.8
8.6,1.9,290.3,-1.2,-16.6,12.4
8,0.8,289.7,-1.2,8.4,-4.2
6.4,-0.3,289.6,1.6,-3.8,-16.8
7,0,289.3,-5.2,-0.2,-1.2
7.1,-0.5,289.3,-0.6,8,-7.2
6.8,-0.4,291,-1.4,-11,30.2
6.8,0.1,291.6,5.2,20.8,7.2
9.6,-0.9,293.7,-1.4,16.4,-31
4.7,-0.7,294.2,0,-6.4,13.8
6.1,-0.2,292.6,0.2,-0.2,-23.2
8.4,-0.1,291.3,1.2,-31,19.8
9.2,0.6,291.8,-6.2,10.8,-52.2
8.2,0.8,292.7,1.4,-24.6,2.6
4.1,-0.4,293.9,-0.8,-1.6,14.2
4.9,0,295.8,4.6,0,-1.4
6.2,1.3,294.3,-1.2,-8.2,-8.4
5.8,1.5,292.9,2.4,-3.6,-7
5.7,1.6,291.5,-0.4,-5.8,-7.2
5.3,0.9,291.1,-0.2,9.2,6
7.6,-0.3,291.1,2.4,2.4,1
6.9,-1.2,290.9,-0.4,5.4,13.4
4.5,-1.5,291.4,-3.4,6.6,-6
4.9,-1.5,292.6,-1.8,-1.2,-16
4.9,-1.4,293.3,0.8,-9,11
7.5,-0.5,293.8,1.6,-1.6,-10.4
7.7,-0.8,295,0,-4.6,15.2
7.9,-0.1,294.8,3.4,9.4,1.2
6.4,0.1,294.5,-0.2,-3,10.8
5.9,1.6,293.9,-6.8,-5.2,-12.6
7.6,2.8,293.4,-0.6,0.6,-3.8
3,2.1,293.2,7,-2.8,6.8
6.3,3.2,291.6,-4.2,5.4,-59.2
5.9,2.5,290.6,1.4,17,-36.6
2.9,1,289.8,7.8,-6.6,60.8
8.4,1.7,290.4,7.6,-3.2,53.4
3.7,-0.6,289.6,9.2,-3,54
6.4,-1.1,290.6,-4.4,8.6,1.4
5.5,-2,291.8,2.8,-7.6,2.2
6.1,-2.4,292.6,-2,-1.8,4.6
8.2,-2,293.3,-0.8,9.8,-0.2
9,-0.7,293.5,-5,2.8,-23.6
8.9,0.3,293.6,-2.6,11,17.8
10.5,1.1,294.1,-0.6,-4,-9
9.3,2,294,-1.2,2.4,24
8.4,1.9,294.1,2.4,3.2,46
10.6,3.5,294.9,4.4,-19.6,-4.4
7.6,3.4,294.8,13.4,-19.8,-2.8
7.6,1.8,293.1,5,-6.8,17.4
9.9,0.5,292.1,-3.4,18,-1.8
5.8,1,291.1,-8,12.4,-30.4
9.3,2,290.2,1.2,38.6,-21.8
2.5,-0.8,290.6,-4.8,-36.4,35.4
5,-0.1,289.8,8.4,37.6,-41.6
3.3,0.1,290.3,-0.8,-5.4,-43.4
1.4,0.3,290.9,-5.4,-4.2,-24.4
-3.2,-1.1,290.8,-7.8,-16.2,23.8
-4.4,0.6,290.9,7.6,-9,62
-2.7,-0.9,291,-1,-8,73.4
-3.4,-1.5,290.2,-2.4,-13.4,-13.6
-0.2,-0.9,290.6,3.2,15,28
-0.8,-4.2,292.1,2,70,2.4
-5.1,-3.2,293.1,5,-12,52.8
3.4,-1.1,294.4,12,71.4,35.8
-2.5,-1,294.6,12.6,14.2,-3.8
2.8,-0.5,293.6,6.6,-5.8,60.8
2.2,-1.3,293.7,2.6,-4.6,-6
5,0,294.3,0,-9,49.6
3.8,0.2,294.2,-2.6,-5.4,-39.8
5.6,-0.5,295,4.8,3.8,27.2
3.8,-0.5,295.4,-3.4,-28.2,-24.8
2.8,-0.4,295.7,0.4,22.6,-35.6
1.7,0.6,297.4,0.4,0.8,-59
3.3,1,297.2,-1,-2.4,45.4
4.3,2.6,296.3,3.4,11.8,7.8
4.6,3.8,296,-1,3,-12.4
5.6,4,295,1.2,11.6,-32
5.7,3,294.1,4.6,10,16.6
5.6,2.7,293.4,-1.8,-0.8,10.8
7.4,3.8,293.2,-4.6,9.6,0.6
10.3,1.8,293.7,-4.4,5,-17.6
10.1,2.8,294.1,6.6,4.2,52.2
10.6,0.7,295,10,-18.4,-14
8.8,0.6,295.9,-5.6,-4.4,7
6.8,2.4,295.7,-2.2,9.8,15.2
8.7,4.2,295.5,2.2,0.4,-1
8.1,3.7,294.5,3.8,-0.4,5.2
9.2,4.1,293.1,-2,2.4,-11.8
7.8,2.7,292.4,4.2,7.8,11.2
7.4,2.2,292.1,3,-3,-0.8
7.7,2.4,291.6,-1.6,-3,-4.8
7.2,1.8,291.1,-1,-5.2,-6.6
11.9,2.4,290.6,-4.6,13,-57
8,1.7,291.3,-1.6,-2.6,22
7.2,2,292,0.4,24.6,18.2
7.9,0.8,291.4,1.8,-14.4,-39.4
8.5,1.9,290.7,3.4,-6.8,61.8
8,0.9,290.6,3.2,-1.6,118.8
5.9,1,290.7,-1.2,-15.6,-79
7.1,1.1,290.9,-2.2,-3,-101
1.9,2.7,290.2,-3.6,-7.6,102.4
3.9,1.9,289.8,-3.8,6.2,-35.6
2.8,0.3,290.1,-0.6,-2,17.4
3.9,0,290.1,0.4,19.6,13.8
4.9,-1.6,290.4,-6,-6.6,1.2
6.4,-4.3,290.6,-4.2,-55.6,-28.8
14.8,-2,291,-6.4,-18.6,-42.4
4,-1.6,291.1,-0.4,-28.4,13.6
7.3,0.7,291.2,-2,-1.4,-7
7.3,-0.3,291.9,-2.2,-8.6,-25.6
11,0.5,293.3,1,14.2,5.6
15.3,-1,295,-0.6,22,-37.6
9.8,-1.3,295.8,2.2,2.6,-20
7.5,-1.9,297,2.2,22.6,-16.2
10.3,0.2,297.1,-4,-9,-25.8
5.9,1.3,298.3,-2,8.4,14.4
6,2.6,298.7,-1.8,-0.2,1.4
7.7,3.1,298.4,-3.6,-10.4,-5
8.2,5.8,299,2.2,10.8,-16.2
7,5.7,298.3,-2.6,-11.8,-38.6
4.1,6,297.1,-3.2,-12,-48.6
9.1,6.2,295.6,19.4,45.4,-54.8
12.5,3.1,291.6,7.6,-27.8,18.4
10.3,3.6,291.4,9.2,-37,132
14,3.1,290.4,-2.4,-12.4,-76
10.6,1.9,290.4,-6.4,-3.6,18
13.2,1.1,290.2,-2,-8.4,-36.8
7.6,0.7,290.7,2,-18.2,14.6
9.2,-0.8,290.2,-5.2,-6.2,6.6
14.4,-2.3,290.8,-6,-51.2,37.8
8.4,-2.4,291.4,-8.6,-21.6,46.6
8.9,-2,292,0,-4.6,29.4
11.2,-1.5,292.6,3.6,8.2,9.2
11.7,-1.7,292.7,-1.2,4.8,-6.6
12.1,0.1,292.5,-6,0.2,-46.2
7,-0.9,293.1,0.6,10,11.2
9,-0.8,292.7,0,-2.4,-26.4
9.4,-1.1,293.5,5,5.8,9.6
9.3,-0.5,294.4,0.2,-3.8,-6
8.8,-1,294.9,1,-5,13.6
10.5,-0.2,295.3,3.2,3.6,-8.2
9.5,0.3,294.3,-1.8,6,4.6
9.7,0.9,294.5,-2.2,-3.4,-12.8
8.1,0.6,294.2,0.6,1.8,-2
7.5,0.3,294.2,0.4,-7.6,-10
6,0,294.2,-1.6,12.6,-41
6.9,1.3,294.5,1.6,0.2,-8
5.3,1.3,294.6,-5.4,-3,-13.8
6.4,1.9,295,2.6,-2.4,20.2
5.3,2,295.1,4,-16.4,16.2
5,1.8,294.9,2,-0.8,1.6
7.1,2.5,293.7,2,-2,19.6
4.6,3.3,291.8,4.6,12.4,33.2
5.2,0.6,290.9,3.4,2,25
5.1,0.2,291.2,-5.4,-2.6,-25.4
4.9,-0.7,291.8,-1.8,-12.4,22.6
7.3,-0.4,293.1,-0.4,-1.4,-32
5.7,-0.5,294.1,-3.4,14.6,26.8
6,-0.3,294.5,2.6,1.6,-2.2
5.8,0.3,295,-2.4,5.2,15.2
4.1,0.8,295,1.6,-16,-0.6
4.4,1,294.3,2.6,17.4,0.2
5.7,1.3,294.2,-6.4,-24.8,9.6
5.9,1.6,293.9,2.8,-8.4,28.2
5.8,1.5,294,0.4,-7.8,32
6.9,2.5,293.7,-3.6,19.4,-4.4
8.3,3.7,293.3,2.8,-2.6,-15.2
6.2,3.1,294.2,3.4,15.6,3
6.9,3.1,294.9,3.4,2.2,-4.2
7.1,4.3,294,3.2,11,5.8
7.1,5.1,294,9.6,18.8,34.8
6.9,4.4,294,2.8,-7.8,-29.8
7.3,3.9,293.9,-2.4,-6,1.4
6.1,3.6,293.8,-4.2,0.2,-4.8
5.7,3.9,293.4,-0.2,-9.8,14
5.2,3.4,291.9,-3.8,15.6,-17.4
6.6,4.1,291.4,-2.6,-17.4,44
6.2,1.9,291.2,-7,-25.4,-32.8
4.4,0,292.2,4,1.2,40
4.9,0.1,293,-6.6,-13.4,10.4
5.1,0.7,293.3,0.8,-8.6,-7
2.9,0.6,293.8,-1,4.8,11.4
6.2,1.4,295.4,-2.8,-4,13.4
7.7,1.6,295.9,-1.2,-6.6,8.8
6.3,1,297,5,-19.6,-15
10.4,4,296.8,8.4,-3.4,18.2
3.6,2.6,295.5,-1.6,-29,-12.4
6.6,2.2,293.4,-1.4,-13.2,-2.6
6.7,3.7,292.5,-1.4,-17.6,34.4
7.5,3.7,293.1,-3.8,0,-67
1.1,2.3,294.8,11,-16.2,5.4
1.9,1,294.4,1.2,-19,25.6
2.8,1.9,294.2,-2.6,-6.4,-2.4
3.7,3,294.2,-1.2,1.2,-20
5,1.5,294,6.8,7.2,18.6
6.6,-1.2,292.9,7.2,4.6,-17
10.1,-1.9,292.3,-7.4,5,-16.8
11.3,-0.9,292.1,1.6,3.2,-14.8
9.5,-1.2,293,-2.4,-4.8,-15.4
10.2,-1.6,293.8,-3.8,-3.8,-8.2
8.4,-1.3,294.4,-1.4,5.2,4.2
8.7,-1.4,295.1,3.4,-4.2,-8.8
8.5,-0.5,294.7,0.8,3.8,16.4
10.1,-0.1,294.3,0,7.4,-19.4
11.4,0.1,294.2,-4,1.8,8.8
10.1,0.2,293.5,2.6,0.8,-11
9.5,0.7,293.9,-4.2,-6.4,-9.6
10.4,0.9,294.5,0.2,10.2,-13.8
11.1,1.3,294.1,1.2,2.6,3.8
9.8,1.3,294.4,-3,-9,-4.8
8.6,1.4,294,3.4,5.4,15.6
7.3,1.7,294.5,4.8,2.4,2.4
6.2,1.7,294.1,2,11,18.4
8,1.7,293.2,-0.4,-10.6,-4.8
9.3,1.8,292.4,-2.2,2.6,-24.4
6.7,1.3,292.3,-0.2,-2,25.8
6.1,0.5,292.6,0.2,4.2,41.8
9,0.7,292.7,3.8,6.2,27.6
7.3,-1.2,293.9,-2.6,-1.4,35.2
7.2,-0.7,294.1,-2.8,-11,-1
6.9,-1.1,294.1,-0.6,-3.6,21.8
8.4,-0.3,295.2,-6.2,-8.2,-24.2
9,0.4,295.7,-2.4,4.4,-18.2
10.3,0.5,296.5,2.2,-5.6,-38
6.8,1.1,297.3,-1,1,17
7.8,2.5,296.9,-3.8,-4.4,-22.2
6,2.5,296.4,-2.2,4.2,3.4
6.3,2.8,295.6,1.2,-0.6,-6.4
7.1,2.9,295,0.4,6.8,0
7.8,2.7,294.2,1.2,-9.2,-14.8
6.3,2.5,293.2,0.2,-5.8,13
6.1,2.5,292.4,0.8,0.8,7
5.8,1.6,291.9,1.2,-1.2,1
5.9,1,292.2,-3.4,-1.8,-3.4
6,0.5,292.5,2,0,-8.8
5.8,0.1,293,-4.8,-2.8,1.4
6,0.1,293.9,-3.4,-1.8,6
6,-1,294.8,4.2,-7.4,4.4
6.1,0.1,294.9,2.2,3.6,-9.2
5.3,0.2,295.2,1.2,7,9.2
5.5,0.6,294.9,3.2,3.2,-1.2
4.5,0.9,295,-3,-6.4,5.6
4,1,295.4,1.4,0,5.2
4.9,1.3,295.3,2.6,3.2,-1.8
3.6,1.4,295.2,1.8,-4.2,5.4
3.7,1.3,295.1,0.8,4.4,-0.4
2.3,1.6,295.3,0.4,-0.8,1.2
2.4,1.5,295.7,-3,-3.2,-3.2
1.2,1.8,295.9,-2.8,-9.8,0.4
2.4,1.9,295.9,-0.2,5.2,-7.8
1.3,1.9,296.1,1.8,-1.2,11
1.3,2.1,295.6,1,-4.6,-4.8
2.4,2.4,295.3,-0.2,2.2,-8
1.9,2.7,294.1,-1.8,-1,-0.4
1.5,2.6,293.2,0.6,-3.8,14.6
1.4,2.3,293.3,0.6,-1.2,15.2
2.9,2.2,293.1,0.4,-1.2,-13.4
2.9,1.6,292.8,1.2,1.6,-0.8
2.6,1.4,292.3,2.6,2.4,2
2.5,1,291.5,0.8,1.8,-3.2
2.5,0.6,292.6,-1.4,8,0.8
2.6,0.6,294.1,-5,-2.4,-16.4
2.3,-0.5,296.1,3,1.4,0.6
2.2,-0.5,297.3,1.2,-2.6,1
1.6,-0.2,299.3,-2,-5.2,11.8
1.2,0,301.7,-1,-0.8,13
1.3,0.1,302.6,-0.2,-1,-19
2.9,1.2,302.8,0.6,-3.4,6.2
1.9,2.1,302,1.8,6.6,-18.6
0.5,1.9,300,-0.2,-2.4,3.4
1.7,1.7,296.8,1,7.8,-17.8
0.8,1.9,292.9,-1.6,-6.2,9.8
1.5,2.2,289.8,-2.4,-8.6,19.8
1,1.4,288.9,1,-3.4,7.8
1.9,1.6,288.9,-0.8,1,-0.6
1.5,1.3,290.8,-0.4,-0.2,2
1.3,0.7,295.5,-1.4,-2.6,2.2
1.2,0.5,295.7,1.2,-5.4,1
0.8,0.6,293.4,1,2,1.2
1.1,1,291.6,-1.2,1.4,-1
1.3,0.9,292,-0.8,-0.8,-0.4
1.6,0.9,294.2,-1.2,-0.6,-1.4
1.4,0.4,296.6,-0.2,2,4.2
1.3,0.5,297.8,1.2,0.6,1
1.7,0.4,298.7,1.8,3.4,-1.2
2.2,0.4,297.4,0.6,0.2,1.2
2.6,0.7,295.9,-1.4,0.6,-0.2
3.3,0.9,296.8,-0.8,0.8,-2.2
3.4,0.7,298.4,-0.2,0,0.6
3.7,0.5,299.2,1.4,2,-0.2
4.2,0.6,297.8,-0.2,1.2,0
4.4,1,296.4,-1.2,0.4,-2.2
5.3,1.2,297.2,-0.6,0.8,-0.8
5.9,1.2,298.3,0.2,0.8,-0.4
6.1,0.9,298.7,0.4,1.4,-0.6
7,0.8,298.4,-0.8,0.4,-0.4
7.2,1,299.4,-0.2,0.2,-1.6
7.4,0.8,299.9,0.4,0,-1.6
7.3,0.8,300.1,-0.2,-1.2,-0.6
7.2,0.7,300.9,1,0.4,-1.2
7,0.5,300.3,1,-1,1
7.1,0.7,299.5,-0.6,1.4,-1.6
6.8,1.1,299.9,-0.2,-0.6,0.6
6.9,0.9,301.1,0.8,0,-1.4
6.7,0.6,301.1,0.8,-1,-0.8
6.6,0.8,299.2,-1,-0.4,-1.6
6.6,0.8,299.2,-1,-0.4,-1
6.8,1.3,299.4,-0.2,0.8,-0.4
6.8,1.3,301,-1,0.2,0.2
6.8,0.4,304.3,-0.8,-0.2,1.4
6.7,-0.4,309.4,-1,2,-0.4
6.8,-0.9,311.9,-0.2,0.2,-1
6.8,-0.8,311.8,0.4,-0.2,0.6
7.6,-0.3,313.2,-1,0.8,0.8
7.7,-0.5,314.4,-0.2,0.4,-2.8
7.7,-0.2,313.6,-0.6,-0.4,-1.2
7.6,0.2,313,-0.8,0,-0.4
7.5,0.4,312.7,0.4,-0.2,-1.8
7.5,0.2,311.5,1.4,0.2,-1
7.6,1.4,306.9,1.4,-1,-0.6
7.5,3.1,299.6,0.4,-1.8,-3
7.4,3.9,295.7,-0.2,1.2,0
7.7,4.4,294.7,-3.4,-2,1.6
8.2,4,296.4,-0.4,1,1.4
8.6,3.4,298.9,-1.2,-0.6,0.8
9.4,2.7,301.9,-0.8,0.4,-3.6
10,2.3,302.5,1.2,0.4,-0.2
10.7,2.5,301.3,0.8,3,1
11.1,2.8,300.9,0.6,-3,0
11.3,3,300.7,-0.4,0.8,3.6
11.6,3.1,299.9,0.8,0.8,-1.6
12.2,3.4,298.2,1.6,-1.6,-3.6
12,4.2,294.6,-1.6,1,0
11.8,4.3,293.3,-0.2,-0.8,-2.2
11.6,4.2,292.8,-0.4,0.4,-1.6
11.6,3.9,293.2,1.8,-2.2,-1.2
11.4,3.8,293,-0.2,-4,-2.2
11.6,3.3,292.4,4,3.2,1.6
12,4.2,288.9,1.6,0.2,-8.4
12.4,4.6,286.2,-0.4,0.4,0.6
13.6,5.1,283.2,-4.8,2.6,-2
13.7,4.6,282,-0.6,1.4,9.2
13.9,3.4,284,-4.6,-1,-1
13.8,1.9,287.5,-2,1.8,9.4
13.2,1.1,289.1,-0.8,-5,3.2
12.8,0.9,288.7,-0.6,-3,0.4
12.8,1.1,287,0.4,-0.6,2
12.7,1.3,286.2,0.4,2.8,-2.8
13.7,0.5,286.5,-2,-3.4,-6.8
13.5,-0.1,287.9,-3.8,1.4,5.6
13.2,-1.1,289.5,-1.8,-1.6,-8.8
13.5,-1.7,290.2,-0.8,-5.2,-4.8
12.8,-2.4,291.1,-3.4,-3.2,-2.6
12.6,-2.6,293.5,-6,3.2,-10.8
10.9,-2.9,296.6,-3.6,0.2,7.8
12.6,-2.9,299.8,-0.4,5.2,-10.2
12.3,-2.6,302,1.4,-6.8,4
12.1,-1.2,303.2,-3,-8,-13.2
12.7,0.7,303,1,2,-8
13,-0.5,302.7,-5,2,-66.8
13.3,1.8,303.5,-2.6,1.2,-35.6
15,2.5,302.3,6.4,31,-11.8
12.6,4.2,299.4,-5.2,4,-14.6
13.1,4.4,297.2,2.6,3.8,0
11.3,4.1,294.3,-1.8,-6.2,-3
11.1,3.3,293.2,4.2,5.6,3
11.8,3.3,291.5,-6.8,10,-11
12.6,3.2,291.6,-2,0.6,12.6
9.1,1.4,293,-3.2,-1.4,-2.6
10.2,1.4,295,-3,-4.8,6.8
10.1,1.1,293.9,2.8,-18,20
8.8,1.5,291.6,4.4,5.8,27.6
6.8,0.9,289.4,-3.6,-4.2,34.6
10.8,0.7,289.5,-4.4,5.4,-26.2
7.8,-1,290.8,1.4,18.2,-58.4
7,-1.3,291,3.2,-2.8,30.4
8.9,-2.7,293.7,0.8,22.2,-4.8
9.5,-2.6,296.9,-3,-16.4,46.8
11.4,-2.4,298.3,-4.6,2.4,2.4
9.1,-3.8,299.3,16.2,25.4,44.8
12.5,-1.2,298.8,2.8,1.6,-0.4
15.2,-0.4,299.4,-2.8,3.2,-28.6
12.8,0.4,299.8,-6.4,-5.2,8.8
12.4,0.6,300.1,-1.4,-19.2,-17.4
9.8,1.4,300.5,-4.2,-8.6,-15
10.1,1.8,300.9,4.2,-1.4,10.8
10.5,2,298.9,4.2,-1.6,-3.8
12.6,1.2,296.4,-4.6,-14.2,9.2
12.4,0.9,296.1,2,10.6,-10.2
11.6,0.3,296.7,5.8,21.8,-17.8
12,-1.2,297.3,6.2,10.8,22.4
14.6,-0.9,296.8,-8.4,1.6,-50.6
13.5,0.3,297.6,-11.4,2.4,21
13.7,1.4,297.9,0,13.8,21.2
13.3,0.9,296.8,4.4,2.6,22.8
15.2,1.8,295.2,3.8,0.8,0.2
13.6,0.9,294.6,2,-10,8.8
12.8,1.1,293.7,-4,-2.6,23
13.6,0.1,293.4,0.6,6.2,-5
10.2,-0.1,294.4,-5.2,4,23.8
10,-2,295.1,-4.2,8.2,9.2
9.7,-2.1,295.5,0.6,-2.8,18
12.2,-1.8,295.5,4,-1.4,-24.4
10.9,-2,295.6,-3.2,-9.2,-13.2
11,-2,296,-5.4,-2.6,-19.4
10.3,-0.8,296.6,3.6,3.6,-0.6
10.6,-0.1,295.9,3.8,9,-6.6
12,0.2,294.7,8.8,14.4,8.4
12.2,-1.1,294.2,-0.6,32.8,1.8
11.5,-1.5,294.3,-1.6,-2.4,-8
11.5,-1.7,294.7,-2,-10.2,-6.4
10.1,-1.8,295,-1,11,17
11.3,-1.7,297.3,-3.8,-0.2,-2
11.2,-1.8,298.4,4.8,16.4,-1
10.2,-1.4,298.9,-0.2,-13.8,-2
10.1,-0.8,299.3,-3.8,6.6,-4.8
11.2,-0.1,298.7,-3.2,-12.4,9.8
11.4,0.2,297,5.4,6.2,3.6
11.4,0.2,296.5,-5.6,-7,-14
9.5,0.4,296.7,-2.4,2.8,-2.2
8.4,1.2,296.7,1.6,7,-4.2
8.8,0.1,297.2,-2,6.8,4.8
10.1,0.7,297.3,0.2,-2.8,1
10.2,1,298.5,-0.4,6,2.6
9.8,1.1,299.2,-1.2,-0.2,-6.2
9.2,1.8,298.2,-0.2,-6.4,-3.2
10.1,2.3,297.1,-1.2,1.2,-0.4
11,2.7,296.6,-7.4,-10.4,-13.2
10.5,1.3,296.5,1.8,-14.8,9.6
9.9,1.5,296,-3.2,-0.4,-21
8.2,1.4,296.5,-3,-7.6,16.2
8.3,2.4,296.6,-0.8,10.4,-16.6
7.9,2.3,296.9,0.4,-2.8,9.2
8.4,1.9,296.4,2,1.6,-12
8,1.7,295.8,-2.4,8,5.4
8.4,0.5,296.3,-3.2,-8.6,-5.6
8,-0.6,297.3,3,-3.2,-1.8
8.5,-0.5,298.2,-6.2,-6.2,-15.2
7.6,-0.3,300,-0.8,-6.2,5.2
6.8,1.8,302.9,-1.2,3.8,-2.8
7.3,3,302,4.8,5.2,1.6
9.2,3.4,298.9,1.6,-10.6,-11
9,4.3,294.7,-3,4.8,-37.4
7.2,2.2,295.1,-15.8,-4.8,-79.2
7.8,2.2,296.5,-0.2,-34.4,6.8
9,3,295.5,-1.6,51.6,-30
7.5,1.7,296.5,8.4,5.6,33.8
7.1,1.5,295.2,-3.4,-0.8,-19.8
5.9,0.8,294.5,-1.2,-13,7.4
7.4,0.2,294.3,0.6,10.8,9
8.1,-0.7,294.8,2.6,-5.8,-2.8
7.2,-0.6,294.4,-2,-6.8,4.6
8.1,-1.5,295,2.8,-4.2,7.8
7.1,-2.1,295.7,-1.2,7.4,23.2
8,-2.1,297.5,-1.8,-8,-21
7.8,-1.2,298.3,-2.2,9.6,3.6
8.9,-0.6,298.5,-1.2,-4.4,14.8
8.2,0.2,299.5,-0.2,-10,3.6
8.6,1.6,298.9,2,-7.8,-12.4
8.2,2.2,295.9,3.8,-0.2,-10.6
8.5,2.1,294.8,-3.8,3.8,4.8
8.6,1.5,295.4,1.6,1.6,9.6
9,1.3,296.1,3.8,1.4,-2
9.4,1.5,296.4,3.4,3.4,14.2
11,1.8,295.9,-0.4,6.4,0.2
10.6,1.2,295.4,-2.4,-2.2,-5.8
10.5,0,295.8,-1,-10.2,5.2
12.1,-0.9,296.2,4.6,0.6,2.4
10.3,-1.5,296.9,-2.2,-15.2,-19.4
9.9,-0.8,297.3,-2.2,1.8,5.8
8.9,-0.4,297.6,1,3.8,8.2
11.1,0.7,297.7,-3,-0.8,-22.4
9.7,1,297.1,-1,8.6,21.6
9.4,1.5,296.2,-3.6,-2.4,-5.2
8.8,1,296.1,-0.8,8,-3.4
7.5,0.4,296.2,3,-2.8,-20.8
6.7,0,296.9,0,0.4,10.6
7.1,1.1,297.7,-3.2,1,-10.2
6.8,1.2,298.2,3.6,-3.4,9.2
7.7,2.4,296.5,-0.6,10,-5.4
8.5,2.6,295.8,-0.8,-2,-19.2
8,1.8,295.1,-0.6,0,-4.2
8.9,1,294.4,1.6,10.6,-2.6
9.3,0.4,294.6,10.6,0.8,-2.2
7.6,-0.8,295.6,0,4.4,-7.6
6.7,-1,297.1,-2.8,5,-5.4
7.6,-1.1,298.6,2.4,-1.8,12.2
8.9,-1,298.9,1.8,-8.2,26.4
10.4,0.2,299.3,4,6,-21.4
9.7,1.2,298.5,0.4,13,-4.8
11,1.2,297.5,1.4,-7.6,-27
9.4,0.3,295.8,1.8,-0.6,-9.4
9.6,0.5,296.4,-3.6,-1.2,3.4
9,-0.3,297.7,2,-7.2,3.2
8.8,0.8,298.7,-4,-6.8,-4.4
7.1,1.5,299.1,0.2,-10,9.2
7.1,2,297.5,0.8,1.4,-7.6
6.4,1.8,296.4,6.2,-2,-5
6.9,2.2,295.8,0.6,9.2,-4.8
6.4,1.4,295.1,-1.4,-9.6,13.2
5.8,1.4,294.4,3.4,-11.2,-1.6
6.3,1.7,294.3,-4.4,1.8,-28
5.8,1,294.4,3.2,-1.2,-7.6
6.8,0.6,294.5,1.2,4.8,-6.2
7.7,0.7,294.7,-3,2.8,-9.8
9,0.2,295.3,1.2,10,-21.4
8.9,0.9,295.3,-2.2,0.6,-61.6
5.3,-2.2,294.6,1,-31.4,30
9,0.4,293.3,11.2,-4.2,-6.2
9,0.7,294,-3.2,5.6,-2.6
5.6,0.1,294.2,-0.6,5.8,-2.8
5.5,-0.9,297,1.6,-3.6,18.6
6.9,-0.2,299.1,-0.6,6,-13
6.9,-1,299.8,3.2,16.6,-9.8
7.8,-0.2,300.3,-4.8,-38.6,-6
7,0.3,300.3,-2.6,9.8,-44.6
6.2,1.8,300.5,-1.2,-9.8,13
4.1,3.2,300.4,-7.4,-7.2,-17.6
4.5,4.2,300.3,-0.6,-8.6,26.2
4.9,4.1,299.8,7.4,-0.8,13
5.1,4.1,298.6,-1,16.6,14.8
5.2,3.8,297.8,-1.8,-10.6,-11.4
4.2,3.3,297.7,6,3,-7.2
4.5,2.9,297.8,-1.6,1.8,-6.4
6.3,3.4,298.2,0.4,8.8,-18.4
6,1.8,298.6,6.2,-4.8,32.8
6.2,2.7,299.4,-1.8,3,-8
10.2,3.1,298.8,-0.4,-5.8,11.2
11.1,0.9,298.2,-3.4,24.8,-27.4
8.4,1.1,298.2,-8.4,-5.2,17
6.9,1.7,298.7,-5.4,-1.2,-26.6
8,2.5,298.8,-5,0.8,-27.8
5.7,2,298.8,1.8,-6.6,-2.2
6,1.5,298.2,0.6,3.6,-9.6
7.8,1.9,298.3,0.6,-6.4,-1.4
6.6,1.2,298,0.8,13,13
6.1,0.8,297.8,-1.6,2,-7.6
8.9,0.4,298.2,1.6,0.8,-34.4
6.6,0.4,298.5,2.6,6.2,-17.6
8.3,1.5,298.3,-3.8,-11.6,-20.8
7,2,298.7,-0.8,-3.4,7
7.3,2.6,298.7,1.2,-3,-4.8
6,2,298.2,3.4,3.2,37.8
6.8,2.3,295.8,3,-4.6,17.4
6.5,2.2,294,-0.8,-5,6.6
6,0.2,293.7,1.4,-14.8,33
8.6,-0.9,293.3,1,-31,-8.4
9.7,-0.8,293.2,-8.6,1.4,-29.8
11,-0.1,293.2,-5.6,4.6,14.2
9.8,-2,294.9,1.4,-11.4,59.4
11.5,-1.2,297,-0.2,-13.2,-27
7.6,-2.6,298.2,-1.2,-21.4,37.2
10.1,-2.2,300.8,5,9.8,-51.8
6.3,-1.7,301.1,-6.8,-13.4,-35.2
7.9,-0.1,300.9,-3.8,12.4,22.4
7,0.7,301,1.4,-2.2,-2.2
6.8,3.3,300,0.2,-0.4,8.6
3.9,3,300.1,1.6,-17.2,39
5.4,3.6,299.4,5.2,-7.6,4
8.1,3.1,298.5,-4.6,-24.4,3
7.2,3.9,298.4,0,-5.4,6.2
5.9,3.6,297.8,-5,3.4,5
6.2,3.1,297.5,1,6.2,-0.8
6.5,3.7,297.5,-3.4,4.6,-36.4
6.8,2.9,297.4,6.8,-4.2,24.2
9.5,2.2,297.4,2.6,4,3.4
9.3,1.8,296.6,-1.6,9.6,10.4
11.8,1.4,296.5,-3.8,-10,-6.2
10,1.3,296.4,0,7,-15.2
10.4,1.5,295.3,4.6,9.2,-3.4
7.4,2,294.8,-4.6,-11,-3.2
6.5,2,295.7,-0.4,10.4,13.2
4.5,0.7,296,3.6,-6.8,-16
5.6,0.8,296.3,4,9.4,2.8
5.5,0.9,296.2,0,-0.6,-3.6
8,0.3,297,0.8,4.4,-4.8
8.7,0.1,297.9,2.2,3.4,-5.8
6.3,0.9,298.5,0,-12.4,7.6
9.3,1.3,298.9,2,9,-22.6
7.8,2.2,298.4,-1.2,2.6,-19.2
10.9,4,297.2,0,8.8,3.2
9.4,3.3,296.3,1.2,-1,-3.4
9,2.5,295.8,0.2,-1.8,-5.6
9,1.5,295.3,0,7.8,-1.2
9.1,0.4,295.9,-3.2,1.8,-1.6
11,0.4,296.9,-1.6,-0.4,-24.4
10.5,-1.1,299.6,-6.8,-1,25.8
10.7,-0.1,300.1,-1.6,-4.2,12.4
8,-0.6,301.2,0.8,-8.2,-9.2
6.9,1,302.3,-4,-8.2,-50
6.5,1.8,302.4,2.4,15.6,26.2
7.6,3.9,301.2,1.6,-6,-8.4
3.3,3.1,301,2.4,-1,-17.4
4.4,3.2,300.4,1.6,6,-7.6
4.8,4.2,299.9,-0.8,-3.4,10.8
4.6,3.4,299.3,2.8,3.8,-8.6
4.7,3.2,298.4,0.2,1.4,3.4
4.4,3.1,297.7,2.8,3.2,12.6
5.8,2.9,297.2,1.6,1.8,-2
6.1,2.7,296.6,1,1.6,-12.6
5.4,2.1,295.9,2.2,5,14.4
6,1.8,295.3,-0.2,9.2,1.8
5.9,0.1,294.7,-3,-1,-6
6.5,0.1,294.6,-0.4,4,-3.2
6.7,-0.6,295.1,-3.8,3.2,5.8
7.3,-1,296.1,-4.6,-5.2,-18
8.1,-0.5,296.6,-0.6,23,-34.6
5.3,-1,297.4,7.6,6.8,62
5.5,0.7,298,5.4,-2.2,29.2
4.6,0.3,297.4,-2.6,-1,26.8
5.5,0.4,297.5,-3.6,-1.6,-4.2
5.4,0.2,297.7,2.4,6,-6.4
5.3,0.2,298.2,-0.8,-2,-0.4
6,0.4,298.9,-1.4,2,-8
4.3,0,299.2,2,1,6.6
6,0.4,299.5,-3.4,-3.6,-28.6
3,0.3,299,2.4,4,36.6
4.9,0.6,298.9,2.4,6,5.6
4.4,1.1,298.7,-5.4,-4.6,15.4
4.1,1.1,297.8,-0.8,3.8,2.6
4.3,1.4,297,-1,-3.8,-2.6
3.9,1.5,296.6,0,4.8,3.6
4.4,1.1,296.4,-1,2,-3.6
4,1.1,296,-1.8,-5.8,1.6
3.5,0.6,295.5,0.6,0.6,-1.4
3.5,0.3,295.2,1.2,1.8,-4.4
3.1,-0.1,295.2,-1.2,-2.2,5
2.8,-0.5,295.6,0.2,-1.8,0
2.2,-0.7,296.2,-2.4,-1,2.2
3,-0.6,297,-1,-2.4,2.6
2,-1.1,297.9,-0.6,0.4,8.2
2.3,-0.4,298.5,0.2,-0.6,-5.4
1.7,0.1,298.5,1.8,1.6,14
2.1,0.6,298.4,5.8,-0.6,-6.8
2.5,0.8,298.6,5,9.4,8.8
1.6,0.8,298.6,0.2,-1.2,-7
1.1,1,298.4,4.4,2,0.2
-0.2,1.1,298,0.8,-3.6,10.2
-1,1.3,297.3,0.2,4.6,15.6
-0.4,1.2,296.4,0.6,-1.2,-10.6
-0.8,1.2,296.4,-0.4,6.6,12.6
-1.3,0.8,296.6,-1,-9,-2.2
0.4,0.8,297.4,-0.8,9.8,0
1.3,0.8,297.8,0.2,-0.2,0.8
0.9,0.9,298,0.6,-1.6,1.2
4,0.9,298.9,1.6,0.6,-0.8
4.8,1.4,298.9,1.4,0.4,-7.8
5.4,2.2,296.8,0.4,1.4,-5.8
5.7,2,294,4.2,-4.8,10.4
6,2,289.7,2.2,5.2,-3.8
6.8,1.6,287.2,-3.6,-3.4,-0.8
6.4,0.4,287.9,-5.4,-4.6,5.8
6.2,0.1,292.8,-2,-3.6,4
6.5,-0.3,300.6,-3.8,-6.4,2.6
5.5,-0.7,305.6,3.6,-0.6,15.8
5.3,-0.4,305,2.2,-0.4,-5.6
7,0.9,300,0.6,3.6,6
7.5,2,296.9,-0.2,1.6,-4.8
8.3,2.4,295.5,-0.6,5,-1.2
9.1,2.3,293.7,-1.8,-7,-2.2
8.7,1.4,295,-2.2,-0.4,3.6
8.8,0.8,298.5,-1.2,-2.6,1
8.4,0.5,299.5,0.6,-0.6,1.2
8,0.6,297.6,1.8,0,3.8
9.1,0.7,293.9,-0.8,-3.2,0.6
9.4,0.3,292.5,-4,8.4,5
9.7,-0.6,296.2,0.6,-1,2.6
10.7,-0.5,300.6,1.8,-14.4,-3
9,-1.4,301.1,-6,-10.4,-8.4
11,-0.5,301,-2,-1.8,-1.8
9.1,0.3,300.3,-3.2,-15.8,1.2
9.7,0.6,300.7,-5.8,0.2,-1.2
9.6,0.1,303.2,-0.4,5.2,0
9.1,1,304.8,-0.8,0.4,-1.8
9.6,1.6,303.1,2.2,-1.8,0
9.9,2.2,299.9,0,-2.4,-2
10.8,2.4,299.5,0.4,-2,3.6
10.6,1.8,299.6,-2,1.4,-1.2
10.9,1.8,299.6,-1.2,-0.4,-4.2
10.6,2.4,298.6,3.8,-6.8,15.2
10.8,2.4,298.1,2.2,5,-0.6
11.1,2.5,298.3,-0.6,-1.8,-8.8
11.5,2.1,298.6,2.8,5.4,14.8
11.6,2.7,297.9,1.8,-2.6,-20.2
9.7,3.2,297.8,3,4.2,10.6
11.2,3.3,297.3,3.8,-2.6,-8
13.3,3.8,296.8,1.8,-8.4,-10.6
9.9,3.9,294.8,-1.8,-7.4,1.2
11.3,3.5,293.6,0,-18.2,7.8
12.4,2.2,293.7,-0.6,-4.8,-6.2
10.9,0.6,293.7,4.2,-3.6,12
10.6,0.5,293.5,1.4,-0.8,-3.2
10.9,0.4,293.5,-0.2,2.2,-9.4
11.7,-0.9,294.9,4.6,3,-13.2
10.9,-0.1,296.2,0.8,3.2,-9
10.8,0.3,297.8,0.2,-5.6,-13
9.4,0.3,298.8,0.6,3.4,8.4
12.3,1,298.6,-0.2,5.6,-28.2
9.7,0.5,298.1,-2.2,1.8,-13.2
10.5,0.9,297.4,-4,-4,-11.6
9.7,0.2,298.4,-1.2,3.2,1.8
12,-0.2,299,1.4,-0.8,-14.2
11.3,-0.4,299.6,4.8,9,-15.6
10.1,0.3,300.8,-2.2,-4.4,-17.2
9.9,0.5,300.4,1.2,-5,1
9.7,0.7,301.1,1.6,-1,-0.6
9.6,1.9,301.2,-1,-3.2,-6.6
10.8,1.9,301.3,3.6,3.4,-13.2
9.5,1.8,301.7,0.6,0.6,-13.8
9.3,2.2,301.8,4.2,-2,5.4
8.9,2.1,300.3,3.8,-4.8,-8
9.3,2.3,300.2,2,4,10.6
10.5,2.7,299.5,0.4,-1.6,-35.6
8.4,2,298.6,5,-3,-5.4
7.7,1.6,297.9,-2,5.8,2
8.6,1.4,298.9,0,-12.2,31.2
11.4,2.7,299.7,-0.4,16.4,-52.6
7.8,1.6,300.2,-3,5,-9.2
9.6,1.9,300.3,0.6,-4.8,9.8
9.8,1.6,300.2,2.6,-20.6,34.4
9.5,2.1,300,-1.6,2.2,28.2
9.4,1.7,299.2,0,19.8,17.4
10.1,0.7,299.4,12.8,10.8,-3.2
6.1,1.5,299.3,-7.4,-42.8,-20.8
5.5,1.9,299.1,1,3.2,19
9.5,1.8,299.4,-2.4,-9,18
8.4,1.9,299.1,-1.2,-10.2,30.6
9.3,1.7,299.4,-1.2,-3.4,-16.6
9.7,1.5,300,0.6,-11.6,10
10.5,1.2,299.8,2.4,-15,17.4
8.7,0.2,299.3,3.2,-3.6,23
11.7,0.2,298.9,-1.8,-1.8,-52.2
6.6,0.6,298.5,5,7,24.8
8.3,1.9,297.5,2.6,5.8,30
7.6,0.8,298.8,2.6,3.4,9
10.1,2,299.6,-7.4,0.2,-16.2
8.3,2,299.6,-0.4,-2.2,-7
8.7,0.3,297.7,1.4,-5.2,-7
9,0.9,296.1,-11.6,-11.2,8.4
8.5,2.2,298.5,-3.2,-2,-12.8
11.4,2,301.5,-12.8,-22.4,-17
7.6,1.2,302.6,0.4,-10.4,8.8
6.6,1.2,302.2,-1.2,-4,2.8
5.4,2.4,301.7,0,8.8,30.4
6.1,2.3,302.2,-1.2,-4.4,-4.8
6.2,2.5,302.3,0.8,9.4,-2.6
7.4,2.8,301.3,2.6,0.8,14.4
9,3.1,300,-3.6,-9.6,-2.8
9,2.2,299.4,2.6,5.6,0.4
11.1,1.9,299.3,3.4,-10.4,-8.4
13.5,2,297.2,-0.6,-8.8,44.8
10.8,1.2,296.7,0.8,3.8,-42.6
4.2,1.2,297.9,-3.2,-56.2,-49
11.1,0.9,297.7,-6.8,-1,-50
6.6,0.2,298.4,2,-1,-37.4
7.7,0,298.7,-2.6,-3.2,12.4
8.8,-0.1,298.8,2.2,-14,26.2
11.4,-0.7,299.8,6.2,11.8,-0.2
8.4,-1.4,299.2,1.2,2.4,20.6
9.5,-0.8,297.1,-7.8,14.8,-28.6
7.6,-0.6,296.7,-1.2,22.2,11.4
10.8,0.9,296.4,-7,-8.4,-29.8
10.6,0.2,296.4,1.8,-10.2,19.6
10.9,-0.2,296.8,-2.4,9.8,-28.4
10.1,1.2,297.6,2.2,1.4,-25.2
12.7,-0.1,298.1,15.4,23.4,3.8
10.4,-2.1,298.3,-1.6,-11.2,9.8
11.4,-1.6,299.6,-1.6,3.4,12.4
7.6,-2.5,301.6,-1,12.6,-18.6
8.1,-1.1,302.9,-2.6,-1.6,12.4
6.5,0.5,304.3,-1,2.4,-14.8
8.6,2.8,304.2,1.8,-3.6,7.4
7.5,3.6,304.2,2.8,2.8,-3.8
7.9,4.6,302.4,8,8.8,29.6
8.3,4.1,299.1,9,-7.2,1.2
9,4.2,297.7,0.8,-5.2,2.4
10.4,3.1,296.4,3,-10.8,-3.2
12.7,3,294.5,-5.6,12.4,-8
10.5,1.1,294,5,-3,3.4
11.4,0.3,296.4,-4.2,-5.2,32.4
10.7,-1.2,298.4,-1.4,1.8,-73.6
9.7,-1.9,299.9,2.2,-14.4,82
8.3,-1.9,300.8,-5,-10.8,-64.4
5,-1.6,303.2,2.8,8.8,-19.8
5.7,-0.6,303.1,3.4,-11.8,5.4
5.8,1.3,302.2,0.6,-10.2,-40.8
4.1,3.4,301,-2,5.4,33.8
5.1,3.8,301.2,3.8,-2.8,-2.2
3.8,4.1,300.7,0.6,-7.8,-21.6
3.3,4,299.2,3.4,13.6,1.4
7.2,3.6,298.3,3,-1.6,-21.2
7.8,2.6,297.6,1,9.2,8.6
7.8,2.2,297.4,0.4,1.8,-9.8
6,2.4,296.8,3.8,-2.8,77.4
6.1,3.3,297.4,4.4,-24.4,-7.8
4.5,1.4,297.7,8.6,7,-5.8
4.3,1.7,298.1,-1.4,-1.2,-6.6
7.5,0.6,298.4,-1.2,9.4,6.4
6.4,1.1,297.8,3.6,-7.4,-0.4
7,1.9,298.3,-0.6,-3.2,6
6.3,2.4,298,2.6,6.4,14.8
5.6,2.2,297.8,-2.8,9.8,2.6
7.3,1.7,298.1,-0.6,-6.4,-14.6
7.6,1.7,298.3,3.4,-13.8,24
7.5,0.9,298.4,-1,-11.2,17.2
9.9,1.2,298.6,-2.6,0.6,-10.8
10.3,1.1,298.5,1.4,2.4,4.6
8.2,1.1,298.4,0.2,-16.2,-5.8
8.2,0.9,299.1,-0.4,6.4,-7.6
9.2,1.2,300.3,1.4,-0.2,14.6
8.6,1.1,300.4,0.4,-7.4,1.6
7.8,1.7,300,0.8,-9.4,4
8.4,1.1,300,3.8,4.4,-10.4
10.2,1.8,299.5,-1.2,5.8,13.4
10.1,1.5,299.8,-3.8,-7.2,-23.4
9.3,1.7,298.8,-1.8,-1.2,-0.4
9.6,1.2,299.1,0.8,-8.4,-2.4
9.2,1.4,298.6,-2.4,4.6,1
9,0.7,298.6,-1.4,2.2,-4
8.9,0,299.5,-0.4,5.4,3.2
8,0,299.7,0.8,7,17.4
9.8,0.1,299.8,0.2,1.6,-20.6
9.8,0.1,299.8,-0.8,-0.4,9.4
9.8,0.1,299.8,-3.4,-5.8,-18.2
9.8,0.1,299.8,-1.6,1,9.4
9.8,0.1,299.8,-2,-3,0
9.8,0.1,299.8,0.4,6.8,-6.2
9.8,0.1,299.8,2.2,-3.2,-1.6
9.8,0.1,299.8,-1.2,10.6,0.4
9.8,0.1,299.8,0.6,7.4,-9.2
9.8,0.1,299.8,0.6,-17,26
9.8,0.1,299.8,-0.2,4.6,-9.6
9.8,0.1,299.8,-1.6,4.8,-1.6
9.8,0.1,299.8,-1.8,2.8,5
7.7,1.1,298.6,0.2,1.8,-9.8
7.7,1.1,298.6,3.2,-1,-1.8
7.7,1.1,298.6,2.2,-1,-13.4
8.1,0.1,298.6,5.2,1.4,9.2
8.1,0.1,298.6,-7,-11,8.2
8.1,0.1,298.6,-1.8,-8.6,-14.2
6.8,-0.3,299.8,-0.6,13.8,-7.4
4.8,-0.1,299.4,-0.4,4.6,17.4
6.8,0.3,299.6,-1.4,10.6,-2
6.3,0.3,299.6,1.2,6.8,-14.6
7.8,0.3,299.6,-1.6,6.2,-5.2
6.5,-0.1,299.8,4,-1.2,21.6
7.2,0.3,300.1,1.2,-7,-14.2
6.4,0,300.6,3.4,-3.6,10
5.9,0.5,301.1,-1.6,-5.6,-6.8
5.7,0.6,300.5,-0.8,-6.4,19.4
8.5,0.5,301.4,1,17.2,-21.6
3.5,-0.5,300.8,0.8,-12.2,49.6
4,1.6,300.1,1,-19.8,22.8
5.8,4.4,299.9,11,-8.6,4
4.1,2.7,298.8,-4.4,4.6,9.4
5.5,1.8,298.8,1.8,19.4,-27.2
6.9,1.6,298.9,-9.4,10.6,-35.8
6.6,3.2,299.5,8.2,0,38.6
6.9,2.4,300.5,-4.4,4.8,-14.2
5.8,2.2,299.7,1.8,12.8,-18.2
4.6,2.7,299.7,0.6,6.4,-14.8
6.5,1.9,299.7,-4.2,1.8,-10.2
6.6,-1.1,299.5,5.4,-20.8,-6.4
7.7,0.4,300,0,51,17.2
5.7,-0.8,300.2,-13.6,-15.6,-43.2
4.5,-1,300.7,-3.4,-10.8,17.4
5.8,-0.6,300.5,4.6,15.6,12.8
1.9,-1.3,300.6,3.8,-16.8,115.8
4.5,-1.1,299.9,6,-30,25.2
3.1,-1,300,-0.8,8.4,-8
8,0.7,300.7,-10.8,10.4,-54.4
7.1,0.1,301.2,2.8,-4.4,25.6
4.8,0.9,300.8,0.8,-1.8,11.6
5.5,-0.1,301.8,-5,11.2,-68.4
7.6,-1.4,302.3,-12,16,-95.6
4.3,1,302.6,1.8,5,15.2
4.3,2,304.3,2.8,-6.8,-11
5.5,1.6,304.6,4.6,5.8,-27.8
5.4,3.3,303.6,9.4,20.4,-7
3,3.9,301.7,-9,-10.4,-28.2
2.3,3.9,301.1,4.4,1.4,-25
-0.3,6.6,299.4,2.4,-7,49.6
18.6,3.3,297.7,-0.8,-37,41
15.3,2.9,295.2,-18,-101,32.2
13.8,2.8,294.4,9,8.4,-87.4
5.8,2.4,293.9,6.4,-2,23.6
8.1,1.2,293.4,1.8,5.8,-0.2
6.7,-0.9,294.6,-2.4,1.2,-32.6
8.4,-2.2,296.1,-6.6,5,14.2
10.7,-2.3,298,-0.2,-5.6,-15.2
9.2,-2.5,299.6,6.6,2.2,25.6
9.9,-1.1,300.1,-4.8,-5.8,-5.4
9.9,0.1,300.2,-0.8,20.2,5.2
8.2,1.4,300.6,-4.6,-2.8,-4.4
8.8,2,299.7,2.4,4.4,19.8
7.7,1.7,299.7,2.6,10,14.6
8.1,0,300.3,3.4,-1.8,17.4
8.3,-0.8,301,-4.4,0,-42
9.1,1,300.7,-0.8,-4.8,20
10.2,1.3,300.2,0.4,11.8,-23.2
12,2.4,300.2,-1.4,-1.8,44.2
10.6,2.5,300.7,-4.4,-1,-23.4
9.4,2.6,300.2,5.8,-2.2,0.6
10.8,2.8,300.1,-3.4,0.6,32.4
10.9,1.7,299,1,-1.2,-28.6
9.1,1.2,299.2,2.8,-8,6
11.5,0,300.1,1.4,-25.6,-22.2
11.8,-0.8,300.5,11,-5.4,-8.4
7.3,1.4,300.5,-3.4,-16,-28.2
8.2,2,301,-3.2,-3,-41.8
7.3,1.8,300.3,7.8,27,11.2
6.7,0.8,299.9,-0.6,-3.2,10.4
7.7,0,299.6,2.6,-14.2,12.6
9,0.1,299.6,1.4,7.8,-4
5.5,0.1,299.9,1,11.4,6
9.5,-0.4,300.9,5.8,7.8,-12.4
6.2,0.4,301.1,2,7.6,-1.4
6.7,0.2,300.2,-1.4,10.8,8.2
7.8,1.1,298.7,0,2.6,-32.2
6.6,-0.3,298,4.6,10,-10.6
8.8,0.5,297.9,6,3.8,2.8
9.4,-1.2,298,8,-0.4,0
7.3,-2,299.7,4.2,11.6,10.4
7,0.3,300.9,-11.2,9.6,-19.6
5,1.1,301.9,-1,-7.6,19.6
3.2,2.1,301.4,-3.6,-3.2,13
3.1,2.2,299.2,4,2,23
5,1.7,296.8,9,10.2,-6.6
5.8,0.6,294.6,4.8,12.8,17.6
6.3,0.5,294.6,-3.4,32,-46.4
0.6,-1.4,297.5,-1.2,16,64.4
5.9,-1.8,299.9,-3.2,-17,72.6
1,-2.1,300.9,-1.6,-3.4,18.6
3.4,-1.6,302,-1.6,16.2,-28
5.4,-1.3,301.6,-4,-5.2,-45.4
5.3,-1.6,301.6,8.6,-25.8,10
6.9,0.1,301.9,6.8,10.4,1.4
6.6,0.8,302.1,3.6,-13.2,13.8
8.3,1.1,302.9,-0.4,12.4,-4.2
9.3,1.6,302.6,0.4,-3.2,0.4
10.5,2,302.1,0.4,-5,2
13.1,3.1,300.7,2,-2.4,-9.8
13.5,2.7,299.9,-8,8.2,-7.8
17.6,3.6,299.3,-2.2,13.4,-30.4
13.1,2.9,299.1,2.8,13.2,6.4
14.7,2.7,299.3,0,-18,-26.8
13.4,1.1,299.7,3.6,-5.8,35
12,0.5,300.1,5.6,5.6,38.2
11.4,1.1,300.6,2,-19.6,10.6
8.4,-1.1,300.2,0.8,-9.4,-9.6
12.8,-0.6,300.2,-4.8,6,-30.8
13.2,-0.7,301.1,-0.2,-2.2,-6.2
11.4,-0.2,302.2,0,2.6,11
11.6,0,302.3,1.8,-1.2,3.4
9.7,0.4,301.9,-2.6,-0.6,7.6
10.3,0.7,302.2,-1.6,1.8,-16.8
8.7,0.5,302.6,3.2,-2.2,-2.8
8.5,1,302.1,-2.2,3.8,-9.6
8.3,0.6,302.3,3.4,-5.2,6.8
7.8,1.6,302.4,-2.4,-6.6,5.6
10.7,2.8,302.7,-2.8,15.4,6.2
7.5,3.2,302.9,-1.2,15.8,-24.4
8.4,3.8,302,3.8,1.8,23.2
7.6,4.1,301.2,-3.4,5.6,15.8
6.9,2.4,300.5,8.8,3,7.4
5.8,2.1,299.3,-1.8,-9.6,-28.8
6.1,1.6,298.9,4.2,15.8,-2.2
5.3,1.9,299.1,1.6,6.4,-12.2
4.5,0.6,299.7,-0.8,9,1.2
5.5,1.5,300.1,-2,15.6,3.4
5.2,3.2,299.5,-3,4.8,10.2
7.7,3.1,299.3,3.8,20,-0.2
5.9,2.5,299.2,4.2,-5.8,16.8
4.5,2.9,299,-2.8,-21.6,8.6
5.1,2.6,298.7,-3.8,-11.2,-0.6
4.1,2.1,298.7,0.4,-0.6,4.6
2.9,2.3,299.6,-0.6,0.2,-20
5.9,2.1,300.1,0,2.8,-0.2
7.6,1.2,299.1,0.6,-18.6,-7.2
7.5,0.4,299.2,-1.6,1.8,0.6
7.1,-0.1,299.2,1.2,-13.4,3.2
8.4,-0.4,299.6,-3.8,8.2,26.6
9.5,-1.3,301.1,-4.8,-6,-40.2
11,-0.7,301,-4.4,-4,36.8
10.3,-0.8,301.7,0.2,-2.4,-5.4
9.1,0.2,302.6,-4,-6.8,-12.8
8.5,0,303.7,3.6,-3,-3.4
8.1,1.3,303.4,-0.4,-1.2,-37.8
5.7,1.9,301.7,-1.2,-2.6,-23.6
3.6,2,301.3,-0.2,2,8.6
4.3,1.9,301.6,1.6,9.4,-1.2
4.2,2.4,301.7,-2.2,3.6,-15.6
4.2,2.1,302.6,-1.6,-3.4,4.8
4.9,2.8,301.8,0.6,2,2.8
7.1,2.8,301.5,1.2,9.4,-9.2
8.3,3,300.7,-1.2,11.4,-15.8
5.7,2.2,298.4,2.6,-3,24.6
7.3,1.9,296.9,-0.2,1.4,-6.8
6.2,0.9,297.9,-2.6,13,-0.4
7.9,-0.3,300,-4.6,28.6,-37.6
7.5,-1.5,302.6,12.6,26,55.8
7.1,-0.7,303.2,-8,-41,-21.8
8.9,-3.5,305.1,-7.4,-16.8,-83.8
-6.1,-1.8,303.2,-4,-1.2,102.8
1.7,-0.5,302.1,-2.2,29.4,59.4
-3.4,-1.9,302.6,1.4,4.4,65.6
1.9,0.2,301.9,8.8,1.6,28.4
1.3,0.3,302.3,-0.8,0.8,-13.6
3.5,0.6,302.6,3.8,7.4,6.6
4.6,1.3,302.5,-4.2,-3.2,0
5.9,1.5,302.6,4,3.4,-7
6.5,2.1,301.9,2.6,5,12.8
8,2.6,300.9,-2.6,-9.6,-32
7.7,2.5,300.2,2.8,-9.8,-5.2
8,2.8,299.2,-2.8,-4.8,-15
7.2,2,296.7,2.2,16.4,22
8.4,0.7,296.6,3,-1.6,12.4
7.9,-1.2,301.2,10.2,12,43.2
11.7,-0.7,302,-2.6,-24,-7.8
11.2,-0.7,302.1,-2,-25.6,2.6
11.6,-0.4,302.3,0.2,-24.8,18.2
9.9,-0.6,302.6,-0.6,5.4,0
11.1,0,302,0.8,-3.2,-1.8
10.9,1.1,302.8,6,15.8,-2.2
11.7,0.5,303.9,4.4,-2.4,-10.8
10.1,0.8,303.9,4,6.6,-3.4
11.4,1.6,303.6,-0.4,22.2,-27
8.7,1.7,303,-1.4,-1.4,1.8
9.4,1,302.3,-0.2,2.2,-9.2
8.8,0.3,302.9,-2.4,-4.2,-7.8
7.6,0.5,303.9,0,-7.4,7
7.1,1,304.6,-2,-0.2,-16.8
6.6,1.2,304.5,-0.8,2.4,9.2
7.9,1.4,304.1,-0.2,0.4,-14.8
6.9,1.6,303.6,2.8,2.8,-0.4
6.8,2,302.4,-2,3.2,-8
7.5,1.4,302.4,-3.6,2.8,-2
6.9,1.4,302.3,-3.6,-2.8,2
7,1.3,302.5,-2.8,-3.6,-3.4
6.8,1.8,302.8,-3.4,-0.6,-16.8
6.9,1.8,302.9,-1.2,5.8,-13
5.4,1.9,304,-1.4,1.4,6.6
6.4,2.2,304.5,3.6,-1.4,0.4
7,1.5,303.2,6.2,6,7.8
8.5,2,302,2.4,4,-12.8
7.7,2.3,301,-0.6,7.6,-4.8
7.7,2.4,300.9,-1.4,4.8,-7
8.1,2.2,301.4,-2.4,-2.8,13
9.1,2,302.3,-2.6,-5.8,-18
8.5,1.9,302.8,-0.8,0.4,-7.8
8.7,1.9,302.3,-0.6,-6,12.6
9,1.3,302.5,3,17.8,0
10.6,0.8,302.8,1,-4,-3.6
9.9,0.9,302.9,2.6,-1.8,6.2
10,1.6,302.9,1.2,-4.2,1.8
8.8,2.2,301.8,3.2,-8.6,6
9.2,2.5,300.9,-0.2,-7.6,7
7.2,1.5,301.2,0.4,1.6,-9.6
7.9,0.7,301.1,-0.8,9,-3.8
7.7,0,301.5,1.2,3.6,-3
7.5,-0.5,302.3,-0.6,1.4,6.4
7,-0.9,303.6,-1.6,1.6,7.4
7.6,-0.6,305.1,1.8,4.4,-17.6
7.5,0.2,305.1,-2.2,1.4,-22.2
7.3,1.1,305.5,1,-2.6,-8.8
6.8,2.3,304.4,1.2,-7.6,8.6
6.6,2.8,303.1,3.4,0.2,11.8
6.6,2.7,302.4,-0.2,-3.4,-2.2
7,2.9,301.9,-1.4,-2.2,7.4
5.7,2.3,301.6,0.4,-0.4,-6
5.9,2.4,301.9,1,-2.8,11.4
6.4,1.8,302.4,-1.2,-4.8,-0.2
6.3,1.5,302.8,0.4,0.6,-3.4
6.9,1.8,302.7,-2,-2.2,-6.2
7.5,1.6,302.2,2.4,5.4,-0.6
7.1,1.1,301.8,2.2,6,3.2
6.5,1.5,301.7,2.2,5.4,-1.2
5.5,1.2,302,1.4,4.2,10.6
6.4,1.4,301.8,0,-6.8,-7.2
6.3,1.8,300.5,-1.6,3.2,3.8
7.6,0.6,299.8,-0.6,3.6,-6
9,0.2,299.1,-2.4,3,-19.4
7.7,-1.9,301.5,-4.6,8.6,-30.4
11.9,-1.7,304.3,9,13.6,16.8
7.8,-3,305.1,1,-3,-40
6.3,-0.8,305.4,-5.6,-21,13
5.3,-0.2,306.8,-4.4,-8,13.4
7.9,1,306.4,-1.6,0,-4.6
7.1,2,306.1,3.6,-0.8,3.6
7.1,3,305.7,1.8,2,-1.8
7.5,2.8,305,3.6,6.8,9.4
9.2,2.9,303.7,-2,-1.4,-2.8
9.5,2.4,303,-0.8,-3,-4.6
6.8,1.9,303.2,-1.8,8.6,-25.4
8.5,1.7,303.2,-1.6,3,18.2
9.1,2,302.7,3,-11,10.6
6.8,1.5,302.9,0.2,1.8,12.4
7.1,1.4,302.7,-1,-0.4,-1.2
7,0.7,302.3,-3,-2,-4.2
7.1,0.4,302.6,0.2,-1,0.8
6.4,0.3,303.4,-1.8,-9.8,10.4
5.2,0.7,304.7,1,2,-2.2
4.6,1.3,304.1,2,0.8,4
6.6,1.5,303.3,0.8,1,-12.6
6.2,1.7,302.7,0.6,4.8,0.2
8.2,1.7,301.7,3.2,5.2,6
6.1,0.8,301.4,-0.6,-2,-19.4
7,0,301.8,2.4,6.6,2.2
7.3,-0.9,302.4,-1,-11.4,13
9.8,0,303.7,-5.2,7.2,-7.2
8.3,-1,303.9,-6.8,8.6,-12.8
7.9,0.3,303.9,-7.2,-15.4,32.6
8.6,-0.5,304.4,-4,18.6,-22
9.7,0.3,304.4,0,-27.8,-4.6
11.2,0.6,304.8,-1.2,0.4,-8.8
10.8,0.4,305,-9.8,-29.2,-8.6
8.2,1.1,304.6,-0.4,-0.8,1.4
8.6,1.4,303.3,-3.4,-29,-33.4
9.1,2.8,302.8,7.6,18,-9
8.8,1.1,303.1,0.4,-8.4,-8.6
8.8,1,301.9,-2.2,-4.2,-15.4
7.6,0.4,301,4.2,-3.4,16.6
9.4,0.1,301,-3.8,0.4,17.4
7.8,-1.2,302.4,3.2,-1,1
8.2,-1,303.1,-0.2,-2.4,2
8.2,-0.8,303.8,-3.8,2.6,9.2
9.2,-0.3,303.4,-1.6,-1.8,11.4
9.9,-0.8,303.8,1,-3.4,12
10.2,-0.7,304.2,-1,10.2,-4.4
10.9,-1.2,304.4,-1.6,-4.6,-34.2
7.1,-2,305.3,0.6,-1.2,-4.2
7.7,-1,306.5,-3.2,-1.6,-27
6.3,-0.4,307.7,-0.2,-4.4,8.8
8.1,1.2,308.5,0.8,-1.6,-5.8
6.9,2,307.2,1.8,-0.6,19
7.4,2.9,305.5,4.2,-0.4,-2.4
7.1,2.4,304.2,4,-2,14.2
6.1,2.3,303,-0.2,-7.2,11.6
6.7,1,303,6,11.4,-28
4.6,0.8,303.4,0.6,4.8,17.2
8.1,0.8,303.9,1,-5.4,-30.2
5.1,0.2,304.5,1.8,6.4,-1.8
7.6,0.8,303.8,-0.2,2.6,-37
6.9,0.7,303.6,-1,-0.8,18.6
7.4,1.5,303.9,-2.4,1.2,-38.2
4.5,0.9,303.3,-1.6,0.2,24
6.6,0.5,303.7,2.4,-3.8,5
8.9,0.9,303.8,1.4,-1.2,-50.4
3.6,1.8,304,1.6,2.6,30.4
3.4,0.5,303.7,1.2,89.6,-32
-5.7,2.5,302.9,8,-27.2,113.4
-0.7,3.3,302.2,-2.8,-5,-50.2
-4.9,2,302.3,6.4,12.8,-5.4
-3.1,2.5,302,3.6,-2.8,-13
-1.7,2.5,302.3,-3.8,4.4,20.2
-0.3,2.5,302.3,3.8,4.8,22.2
2.6,2.6,302.1,2.6,7.6,-8.8
0.2,2.1,301.9,1,-14,-36
1.2,3.6,300,1.4,4.8,-23.8
-0.7,2.3,297.5,1.4,3.2,-13.2
0.8,2.3,294.5,-5,0.4,6.4
1.6,1.2,293.6,-1.6,-2.2,-6.8
3.4,0.6,295.3,2.6,6.8,2.8
8.3,-0.7,298.8,1,9.4,-45.2
10.4,-2.7,299.2,-4.8,4.8,-62.6
7.2,-2,299.2,-1,3,1.8
7,-1.4,299.6,-3.6,-23.2,10.8
7.3,-2.3,299.9,0,8.2,12.8
8.8,-2.2,300.4,2,-13.4,4.2
9.6,-3,301.6,-1.2,5.6,-11.2
7.3,-3.9,304.3,3,14.4,45.2
11.2,-3.1,306.9,-2.2,4.2,-29.8
12.3,-3.7,308.5,-1.2,-27.4,-47.6
6.1,-0.3,310.9,-1.2,6.4,14.4
8.2,2.8,310.9,7,-11.6,-52.4
6.2,4.6,308.2,3.4,9.4,12.6
5.4,4.2,306.6,5.6,-3,16.2
4.7,2.6,305.7,3.4,-9.4,27.4
6.6,3.4,304.4,0.6,-2,2.2
7.6,3.8,304,0.2,0,-28.8
6.9,3.9,304,0.6,-9.4,26.4
6.3,3.6,303.5,1,-7.4,4
4.9,3,303.6,3.4,9,-3
7.5,2,303.1,-4,2.2,-20.6
7.5,2.2,302.7,4,8.2,-8.8
6.8,0.9,301.6,2.8,3.6,-7.4
9.8,0.9,300.4,4,28.6,-40.2
12,1.5,301.1,-7.8,22.2,-69.4
8,-0.3,301.2,-2.6,-12.2,30.2
10.7,0.1,300.8,3.4,6.6,-46.6
7.8,-0.5,300.7,0.6,-2.2,21.6
10.3,-0.9,301.4,1,-8.8,-5.2
9.3,-2.4,302.3,0.8,-2,6.2
9.4,-2.1,303.4,4.8,3.6,-5.4
9.1,-1.3,303.9,6.8,-4.4,19.8
8.2,0,304,-2.8,1,14
7.7,0.7,304.1,1.6,10.4,1.2
7.5,1.5,303.6,-0.8,-5.6,6.8
6.2,2.2,301.8,-0.2,0.8,-18.8
7.1,1.8,301.4,2.2,-6.2,1.8
7.1,1.1,302,4.2,-1,10.2
7,0.8,302,3.4,7.4,13.2
7.9,0.9,301.7,1.2,1.8,6.2
7,0.7,301.6,-1.6,2.2,7.6
7.8,1.2,302.3,-1.2,-14.2,-3.2
7.5,0.9,302.4,1,6.8,16.6
7.3,0.8,302.2,-0.6,-5,-13.2
7.3,0.4,301.9,-3.8,-3.6,14.4
7.1,1,302,1,0.8,-7.8
6.8,0.5,302.4,0.8,-1,1.8
6.6,0.4,302.5,-1.2,3.8,-3.6
7.7,0.6,302.5,1,6.4,10
7.1,1.1,303,-1.8,-2.8,-7.2
6.7,0.6,302.9,2.4,0.2,-22.4
7.3,0.6,302.7,-0.6,-3,-5.6
8,0.3,303,3.6,-0.8,-18.4
5.6,1,303,0.4,0.4,6.4
6.2,0.8,303.5,3.4,-3,5.8
7.7,1.3,302.9,-3.2,-7.4,-4.8
7.6,2.1,303,-1,0.8,-3.2
5.9,1.6,303.6,4,1.8,11.2
4.3,0.6,303.8,-1.6,-9,22
7.4,1.2,303.6,-1.4,2.4,-10.4
4.7,1.1,303.6,-1,-2.6,-34.6
7.6,0.7,304,-0.8,0.8,22
9.4,1.5,303.3,-0.8,2.8,-18
4.6,1.8,302.7,0.2,-12.2,-22.6
6.9,1.9,302.6,4.6,-1.2,39.2
9,1.8,301.8,4,4.4,-2.8
5.4,0.2,301.8,1.2,12.2,37.2
6,0.7,301.3,-4.2,-26,-16.4
5.6,0.7,302.2,-4.2,-8.4,22
5.9,-1.7,302.6,-4.6,6.4,-25.4
8.3,-0.6,302,5.4,-2.6,17.2
7,-0.6,302.7,-2.4,15.8,-26.6
7.2,-0.2,303.1,1.6,-4,16.6
8.9,-0.6,303.1,-0.8,-3,-23
11,-0.3,303.5,-3.8,-1,-27.6
10.8,0.7,303.6,1,-7,22.6
10.7,-0.6,304.7,4.6,19.2,-2.6
11.1,0.8,305.1,-5.8,3,-12.4
11.5,2.2,304.6,5.8,9.2,-1.4
9,3.9,303.5,-15.6,-35.8,119.4
8.6,3.2,301.4,8.8,6,-29
10.1,2.3,300,21.8,26.8,-38.6
5.5,2.6,299.4,2.4,-11.8,27.8
5.3,1.8,299.5,1,-2.4,1.6
7.2,1.9,300,-1.8,2.6,-14.8
6.6,1.1,300,-2.6,13.2,-24.2
9,1.1,300.7,-0.2,1,-9.8
6.4,0,301.6,-5.4,1.8,0
7.5,-0.7,302.1,-6,-7.6,-15
5.2,-1.2,303.4,-2.2,-12.4,20
5.5,0,305,-6.8,-19.2,11.4
4.3,-0.4,304.9,5.8,-13.2,66
6.5,1.1,303.7,-0.4,-30.8,30.6
5.9,1.9,302.8,-4.8,-7.2,-15.6
4.7,1.8,302.4,-2.2,16.6,13.2
8,1.5,302.4,-2,18.6,-4.8
10.7,-0.3,303.8,0,5.2,-2.2
11.3,-0.4,304.2,-4.2,-7.8,-7.4
11.1,-0.3,304.9,-1.2,2.6,-2.4
10.7,0.5,304.8,-2.2,7.6,9
9.7,1.2,306.2,-0.6,2.2,0.4
9.3,2.1,307.9,-0.8,1,4.2
14.2,4.3,307,-1.4,-4.4,-70.2
9.2,5,303.1,0.8,-0.8,29.8
11.9,4.1,299.9,-0.4,-15.4,7.8
9.6,2.7,299.3,-3.6,-5.6,-8.6
9.4,2.1,300.2,2.6,21.4,-15.8
12.2,1.8,301.2,0.2,-9.4,-4.6
7.9,-0.1,301.8,0.4,-18.4,21.4
8.5,0.1,302.8,-0.2,-8,-14
7.7,-0.9,303.2,4,-2.2,29.4
9.7,-1.5,304.7,4.6,-1.4,-5.6
11.3,-0.1,304.3,0.2,-2,-20.8
10.1,0.4,303.8,-3.8,1.8,2.4
8.8,1.4,303.6,1,21.8,16.2
13.9,1.8,303.3,-1.4,8.6,-22.8
7.4,0.1,303.5,-5.6,-2.6,-22
7.8,0.7,303.9,1.2,5.2,-7
9.6,1.5,304.1,-0.4,2.4,-14.8
7.7,1.5,303.7,0,-2.8,-12
8.3,1.1,303,6.2,1.4,-8.4
8.7,1.6,302.6,-1.6,-2.4,-9
7.8,1.3,302.3,-3.6,0,-4.6
7.5,0.9,302.8,1.8,9.8,24.6
8.6,0.5,303.4,-1.2,-3.8,-11.6
8.3,0.5,303.4,0.6,-2,3.4
8.3,0.1,303.2,0.8,0.2,3.4
7.8,0.1,302.9,1.2,5.4,-0.6
7.8,0.2,304.3,-0.6,2,-11
6.8,0.5,304.9,1.8,-5.2,20.8
5.8,0.5,305,-5,-6.4,-23
6.3,0.9,305.2,-1.2,-8.4,-5.4
7.3,1.4,304.9,0.8,2.6,-9.8
6.7,1.7,304.3,-2,-3,-23
7.2,1.6,304.5,0.8,13.6,-1.6
6,1,304.7,0.2,-2.8,9.2
7.4,1.7,305.2,1.2,-1.8,-7
6.7,1.8,304.7,-2.6,1.8,-19.2
7.2,1.9,304.8,1,-0.4,22.6
7.1,2.3,305.1,1.4,-7.4,-10.2
7.8,2.8,304.1,2.2,6.8,3.2
8.3,2.5,303.4,-4.6,1.6,-4.4
7.2,2,303.3,-0.8,0.8,2
7.5,2.3,303.8,-4.6,-5.8,0.2
7.3,2.8,303.5,-0.6,5.6,-3.6
8.6,2.8,301.8,-7.2,-4.6,-17
7.2,1.9,301.7,0,-4.4,16
8.5,1.6,301.3,1.6,1.4,-7.4
7.1,0.7,301,2.2,-15.2,23.2
9.4,1.2,301.1,-6.6,3.8,-26.8
8.3,-0.7,302.1,6.2,9,-12.8
8.6,-0.1,302.7,-4.6,17.6,-22
5.5,-0.5,302.4,-0.2,0.8,24.4
3.6,-2.1,302.7,-0.8,-1.8,0.8
8.2,-1.2,302.9,-0.6,-0.4,-19.6
5.5,-1.1,303,1,7.4,1.2
8.1,-0.5,303.5,-3.2,5.8,-18.2
6.2,-0.9,304.3,1.2,-1.6,6.8
6.5,-0.5,304.6,3.2,2.2,13.4
5.7,0.2,304.8,0.8,-1.2,15.4
7,0.6,304.2,0.4,2.4,-1
8.6,1,304,-3.2,-5.6,-22.2
7.4,1,303.6,-0.2,2.2,-11.6
7.3,0.6,304.1,4.4,-10.4,-1.2
6.9,0.9,304.5,-7.8,5.4,-20.4
9.5,0.3,304.5,0.4,1.4,-33.6
7,0.2,304.6,2.2,4,6.6
7.4,1.4,304.8,-2.6,-2,-7.4
4.3,1,304.6,1,9,7
3.3,1.3,304.3,-4.8,4.8,-12.6
3.5,1.3,304.3,-1.2,10.4,-19.2
4.2,0.7,304.3,1.8,11.4,12.8
4.4,1,304.1,-2.8,-3.8,-21.8
2.5,0.5,303.9,-7,11.8,-7.4
3.5,1.9,304,-3,-12,-29.8
0.5,1.8,304.1,0.4,12.4,28.2
4.1,2.8,304.2,-2.4,-1,-41.4
-0.9,2.5,304.3,0.8,-2.8,66
3.5,1.6,303.6,0.6,-37,23.8
-0.8,0.6,303.7,5.8,-9,38.8
2.6,-0.5,304.5,7.2,-1.2,33.4
-0.5,-0.7,306.4,0,-1.8,14.6
1.8,0.1,307.2,4.6,12.8,-28.6
4.3,0.6,306.7,-0.4,2.2,12.2
5.6,0.6,305.8,-5.4,0,-4.2
3.8,0.9,303.6,2.8,7.6,27.8
6.3,0.8,302,0.4,1,-12
7.6,2.7,301.7,4,32.4,-33.4
8.1,0.5,301.8,1.2,11.8,11
6.6,0.8,302.7,-4,25.6,-36.2
10.4,-1.3,303.1,2.6,34.8,-74.2
5.9,-2,302.7,-4,-2,-46.6
4.9,-2,302.9,0.8,4.8,7.8
4,-1.9,303.4,0,18.4,-18
2.1,-2.5,303.9,5.8,-1,-30.6
5.2,-2,303.9,-3.6,-22,28.2
2.8,-0.1,304,3.4,23,80.8
10.7,-0.2,302.9,-5.2,-25.2,-103.6
2.4,0,302.6,10.4,26.6,-51.4
5.2,-0.5,302.1,4.8,3.6,-0.8
4.4,-1.3,302.3,-1,0.6,-5.2
3.8,-0.9,303.6,4,32.6,-36
12.3,-0.3,304,-13.6,12,-95.8
8.2,-1.1,302.1,4.8,1.8,33.6
1.6,-0.8,301.7,-0.8,-6.8,-39.8
4.9,-0.9,302.1,8.2,38.2,-16.6
6.3,-2.7,303,-1.8,15,17.8
9,-2.4,304,-9.6,-5.6,-56
8.3,-3.1,303.7,-7.6,-4.8,85.6
9.3,-2.9,304.6,-7.6,1.6,-67.6
6.7,-1.9,305.1,-5,9,31.8
8.7,-1,306.8,-4.4,-2.6,-38.8
8.5,-0.8,308.5,-6,-2.4,9.8
6.5,-0.2,308.2,0,-18.4,10.2
8,1.7,306.8,1.6,0.2,4.8
8.1,2.7,305.8,2.8,6,14.6
9.2,3.1,303.6,2.6,-9.4,33.6
6.4,2.1,302.5,3.8,-8.8,38.6
7.1,2.3,301.4,-3.2,-11.4,25.6
7.7,1,302.6,5.6,27.4,10.8
5.8,-0.9,303.7,4,-9.6,58.6
6.3,-0.5,304.7,-1.4,18.4,-9
7.4,0.7,305.3,0,14.2,-17
6.3,0.2,304.5,-4.2,-6.2,6.2
5.4,0.3,304.6,-1.6,0.6,43.8
8.1,2.4,304.8,-4,-13.2,-15.4
5.1,1.9,304.3,6.4,7,7.6
4.8,1.3,303.5,-10.4,-17.2,-35.4
5.6,2.7,301.5,2.8,9.6,-21.2
1.7,0.1,301.2,-1.4,-28.2,90.8
7.1,-0.8,302,-5.6,-5.8,-35.8
3.2,-0.7,302.9,-1.4,4.8,21
5.4,-1.1,303.4,-4,-13,-23.6
4.4,-1.4,304.1,-2.8,9.4,15.2
5.5,-1.3,305.1,-2.4,-9.6,-3.6
6.2,0.2,304.6,2,5.2,7.4
6.8,0,303.4,-6.4,-1.2,-17.2
9.1,1.8,303.2,-3.8,-0.6,29.8
9.9,0.6,303.3,-1,-3,23.2
9.2,0.4,303.4,-2.4,-5.8,3
11.1,1.4,304.1,-3,22,-8.6
16.1,2.4,304.6,-2.2,-10.6,-58.4
13.9,1.4,304.9,1.2,3.4,-2.4
13,2.1,304.5,-1.4,-4,1.2
10.2,1.8,305.3,-0.8,-11.2,31.6
7,3.4,306.1,0.2,23.8,65.6
13.8,4,305.8,-3.4,-26.6,-49.2
8.6,2.2,305.7,-3.4,13.2,6.4
8.9,2.3,304.7,-2.4,2.4,-4.4
9.4,2.4,303.9,0.8,-8.2,-2.2
9.4,2.4,303.3,-2.2,-2.4,5.6
8.6,2.5,303.2,-0.8,6.8,-12
8.2,2.1,302.9,1.4,0.8,0.2
8.3,1.7,301.9,0,-4,-12.2
8.3,0.5,302,3,1,2.8
9.7,-0.4,302.2,-5,-2.2,-0.8
9.1,-0.9,302.6,-1.6,-0.6,5
9.4,-1,303.2,-0.8,7.4,-1.2
9.3,-1.5,303.4,0.8,3.2,-14.4
9,-1.8,304.3,-4.2,-4.2,-9
8.3,-1,305,-0.6,4.4,12.6
9.2,-0.5,305.6,-2.2,-5.8,-8
8.7,-0.5,306.3,-1.6,4.6,3.8
8.5,0.5,307,-1.8,-1,-20.6
7.2,1.3,307.8,-0.2,-1,3
5.5,3.2,307.6,-2.6,6.2,47.2
9.1,2.4,306.6,-0.2,-16.4,9
18.1,3.3,305.5,3.6,9,-33.2
13.9,3.7,303.9,2,13.2,-4.6
15.7,3.6,302.9,-0.2,-0.4,-27.4
20.6,5.6,302.3,1,16,-63.6
13.8,2.8,302.7,-4.4,-23.4,45.8
14.6,3.2,302.8,-0.8,-7.6,-14.2
11.8,2.5,302.4,1.8,6,5
11.5,2.1,303.1,-2.8,11.2,-17.4
9.4,2,302.4,0.4,-3,0
8.3,1.3,301.1,0.2,2.6,-9.6
9.4,0.6,301.1,-8.4,-3.2,-12.6
8.8,0.4,301.6,-8.4,3,2.4
9.1,-0.3,302.4,0.2,5,-3.8
10.2,2.3,302.3,1.2,-3.2,21
10.3,1.4,302.9,-3,-21.6,-10
10,1.1,302.9,-5,-10.8,9.2
9.2,0.5,302.4,9,15.4,3.6
12.4,-0.3,302.1,-1.8,3.2,-30.8
9.6,0.1,302.5,0,6.2,5.2
7.1,-1.6,303.4,3.4,-9,10.2
8.7,0.8,304,-7.2,-11.8,-14.4
7.9,-0.3,305.1,-0.2,-8,4
7.6,-0.4,305.8,-3.2,-7.4,7
7,-0.6,306.6,2.8,9.2,2.6
9.5,1.2,306.8,-2.4,3.4,-20
7.3,1.3,306.9,3.2,7.2,3.2
7.5,0.9,307.3,-1.2,-8,-32
6.1,1.4,308.6,1.6,12.4,25.4
6.4,1.1,309.3,-2.2,4.2,-32
9.8,2.8,309.4,1.4,-9.4,45.2
6.7,3.2,309.4,0.4,-12,-20.8
7.2,3.1,307.6,5,3,4
8.4,3,307,3.4,4.6,-1.6
7.5,2.7,306.5,0.6,-3.2,-8
7.3,2.8,306.2,0,-4,3
7.1,3.3,305.7,2.4,1.2,8.2
10.5,4,304.7,-1.4,6,-27.8
10.2,2.9,304.7,3.4,-4.6,-5.4
11.3,3,303.6,-1,8,-2.2
10.8,1.8,304,0,-9,-4.8
10.1,1.3,304.7,-0.2,-3.2,-13
9.6,0.9,304.8,-2.8,0,-11.6
8.7,1.6,304.5,-3.4,0.6,-13.6
8.3,1.6,304.3,-7,-0.4,3.6
8.2,1.7,303.5,2,-1,-11.6
6.4,1.3,302.5,5.4,2.8,12.8
6.2,0.8,301.9,-1.2,-9.6,-15.6
7,0.3,302.6,-4.4,2.6,0.2
9.4,0.1,303.7,4,4.6,30.4
8.4,-0.2,304.5,-0.2,-10.8,19.6
7.4,-1.2,305.3,-1.4,10.4,-44.4
6.7,-0.3,305.8,-0.2,-18.4,22.4
9.1,-1.5,306.2,-7,4.2,16.6
7.6,-1.1,305.9,2.8,-3.6,8.2
10.8,-0.8,305.9,2.6,15.6,13.8
9.3,-1,306.6,-4.2,-4.2,-3.2
10.4,0.8,307,4.4,10.4,8.2
7.8,0.1,307.7,6.6,-8.2,24.4
8.1,1.3,307.7,3.6,9.2,1.4
8.9,1.6,307.6,-1.2,1.4,14
7,1.4,307.5,-1.8,-28,-3.8
7.4,1.7,307,1.8,8,3.2
8.5,2.8,307,6.2,-3,12
6.8,2.5,306.1,2.4,3.4,4.2
5.8,2.1,305.7,-1.2,-9.4,-11.6
5.4,1.8,305.7,-3.6,-0.2,1
4.1,0.9,306,1.2,4.8,3
4.6,1,306.7,-0.2,2.4,-3.8
6,0.5,306.6,0,6.6,-14.6
7,1.1,306,4.2,-1.6,5
6.6,0.6,305.9,-1.2,6.6,17.4
8.3,0.8,305.7,-2,-7.4,18.6
7.9,1.1,306,1.8,-7.6,15.8
8.5,1.2,306.7,1.8,6,7.8
9.6,1.9,305.9,1.6,-9.2,-5.2
9.6,1.4,305.2,1.6,7.6,-14.8
8.2,1.8,304,-2.6,-5,-3.4
7.5,1.3,303.7,-3.4,-1.2,-8.4
7.9,0.3,303.9,-5.6,6.2,-5.2
8.5,-0.2,304.9,1.8,-5.8,10.6
7.7,-0.5,306.9,3.8,-2.4,14.6
8.3,0,306.7,1.2,1.8,12
8,0.4,306.6,1.4,3.4,6
7.7,1.6,305.6,1.4,7.8,-7.6
6.5,1.6,304.5,-1.2,13.2,-10.6
8.1,0.9,304.6,-0.4,1.8,-7.4
9.2,0.5,305.6,-3.6,3.6,-17.8
7.4,0.2,306.7,3.2,4.2,6.4
9.1,1.2,308,-8.2,12.4,-11.6
8.9,2.2,307.6,8,9.4,-3.6
9,2.8,306.5,2.6,-14.6,-6.2
7.5,2.4,305.4,3,5.8,-3.8
8.7,2.7,304.6,-2,7,2.6
8.6,2.3,304.1,0.2,1.6,-12
6.9,2.1,304.2,1,-0.2,-10.6
6.9,1.6,305.6,-1.4,4.6,1.2
6.9,1.2,307,1.4,14,-6.2
6.3,1.2,308.6,2.4,-3.6,8.6
7.6,1.6,309.1,1,0.6,-0.8
7.4,2.2,307.2,3.2,-3.6,5.2
6.8,2.3,305.3,-6.4,-13.6,5.8
5.9,0.9,303.6,-1.4,-8,9.8
5.5,0.8,303.6,5,-1.8,33.4
8.9,1.5,303.8,-1.6,4.4,-19
4,-1.6,304.4,-5.8,-33,15.4
4.4,-1.6,306.7,-0.4,-1.6,-11.6
2.2,-0.8,306.6,2,13.6,23
7.4,-0.7,306.9,0.4,-43.6,-34.2
0.9,0.4,307,6.8,-9,22.2
5.6,-0.4,306.3,12.8,0.2,12.4
4.2,1.8,306.5,-5.2,0.4,19
5.2,1.8,306.7,1.4,10.8,-18.6
5.1,2,306.4,-5.2,-1.8,-12
5.3,1.6,306.7,4.6,3.6,-6.4
6,1.7,306,-1.6,2,9.4
6.5,0.9,305,4.8,-8.6,3
5.5,0.7,304,0.6,3.6,9.8
5.7,0.1,304.3,-1.6,-0.2,-2.4
6.3,-0.7,306.4,0.2,0.4,1
6.6,-0.9,306.6,1.4,-2.6,-1
5.3,-0.8,307.6,1.2,-6.2,3.4
5.4,-0.4,307.6,0.4,-4.8,-0.8
6.4,-0.1,306.8,2,4.4,5.4
5,0.4,306.3,-4.6,-2.8,3.6
5.4,1.3,305.6,-2.6,0.2,-1.2
4.7,0.5,305.9,0,5.6,9.6
4.6,0.4,306.6,3.4,0.8,18.8
5.9,1.3,306.9,-2.4,-1.4,7.2
6.2,1.2,307.8,-1.2,-4.2,3
6.3,2.8,307.6,0,13,-9.6
6.4,2.3,307.3,3.2,-3.6,-4.2
8.5,1.4,306.4,-4.6,-22.4,-33.4
4.4,1.4,305.7,2.8,-1,44
5.4,2.2,306.1,2.2,2,-33.4
6.4,1.3,305,1.8,0.4,19.4
6.2,1.4,304.6,-0.2,-6.6,7.6
7.9,0,304.9,2,11.6,-22.8
6.6,-0.5,304.6,1.6,11.8,31.8
6.3,-0.4,303.8,-4.8,-15.6,0
6.7,-1.9,304.2,6.2,-2.2,15.6
7.4,-2.5,305.3,-1.8,5.8,-4.4
7.9,-3.6,306.8,-2.6,0.4,10.8
9.4,-3,308.5,0.4,10.6,-3
8.9,-3.4,309.7,-1.2,5,-1.2
9.3,-3.1,312.2,-1.8,6.8,22.6
8.2,-2.7,316,-8,3.6,-12.6
9.9,-0.8,318.8,5,-6.4,17.2
8,-0.2,319.7,7,7.8,4.2
10.1,-0.6,317.7,5.2,0,5.2
8.7,0.1,314.9,0.6,6.2,-5.4
8.4,0.8,313.8,-1.2,17.4,5.2
8.1,0,317.6,4.8,6.4,4.2
9.8,0.4,320.4,1.6,4.4,-5.4
10.3,1.6,325.4,-0.6,-5.8,10
10.3,2.5,327,4.4,0,7
10.9,4,325.9,7.6,-0.6,8.4
10.2,4.5,324.3,-0.2,-7.4,2.8
8.6,6.4,321.2,-1.8,0.8,6.4
9.9,6.2,320.6,-0.6,1,1.4
11.5,6.5,319.4,2,-26.4,19.2
7.5,5.2,318.9,0.2,-5.8,-27.6
9.3,4.5,318.8,0.2,-8,1.4
9.1,4.8,319.5,6,-12,-2
8.8,2.9,319.1,3.4,-2.4,-7.8
7.6,4.1,317.9,-1,-10.2,-1.8
8.3,4.3,317.5,1.6,-11,-9.6
8.2,4.3,317,1.4,1,9.4
10,4.1,316,4.2,0.4,-7.4
7.6,3.3,315.5,0.8,-9.2,15.6
8.9,1.5,314.1,7.4,9.2,-2.2
9.4,1.1,313.4,-4.6,-6,1
8.7,1.1,313.9,-1.6,1.2,-22.2
10.2,1.9,314.1,-2.2,5,21.8
8.2,2,313.5,-1.6,1.2,-11.8
8.8,2.2,313.1,0.6,9.8,3.8
8.4,1.6,312.1,1.4,2.8,0.4
9.8,1,310.7,-2.6,-8,-8.6
9,1.1,309.9,3,-2,19.6
7.2,0.6,309.6,-2.8,-8.8,0.4
8.1,0.4,310.8,-0.6,-5.6,-2.4
8.4,0.5,310.2,-1.2,-9,-1.8
9.2,0.6,310.5,2.8,-21,21.4
9.8,-1.4,310.6,5.2,-21.2,-1.8
14.5,-0.1,309.4,-2.8,15.2,-2.4
12.8,0.1,308.3,-13,-18.4,-16.8
6,0.1,308,-2.4,-36.8,26
6.9,-1.1,308.9,2.4,-10,20
11.8,-0.4,308.9,2.2,-19,4.4
9.5,0,309.5,-2.4,-6.6,-7.6
9.6,0.2,309.7,1.8,-3.8,-4.6
9.5,0.5,308.8,-0.4,-1.2,-3.4
10.3,0.3,308.9,1,-2.8,-19.6
9.1,0.8,308.6,3.2,-2,14.8
8.9,1.2,308.8,2,-1,-12
8.7,1.8,308.5,-2,0.2,6.2
10.1,2.2,307.9,-3.6,-1.4,-12.4
9,1.8,307.8,1.8,-1.2,3.2
8.8,1.3,307.1,4.2,3.4,-2.2
8.7,0.6,306.9,1.2,11.4,5.2
9.2,0,307.1,0.6,-3.6,-2.4
8.4,-0.2,307.3,1.6,-3.8,7.2
8.7,-0.1,307.7,-3.8,0.2,-8.4
9.8,0.6,307.4,-1.2,-3.4,-7.8
9.7,0.1,308,1.2,5.4,-10.2
9,0.3,308.3,-1.4,2,-7.6
9.3,0.3,308.2,2.8,5.6,-12.2
8.8,0.1,308.4,-1.2,5.6,-3
8.3,1,308.4,-0.8,-5.6,-12.4
8.2,1.6,308.1,0.4,3.4,-1.4
9.1,1.9,307.9,-3.8,-7.8,-7.8
8.1,2.1,307.5,-0.4,2,2.4
8,2.1,307.2,-0.4,-9.8,2.4
7.9,1.1,307.2,5.6,4.2,28
10.1,1.2,307.3,-1.2,-18,3
9.2,1.3,307.2,-0.6,-2.4,-2
8.3,1.1,306,-4.6,-12.4,-13.8
8.3,0.8,306.4,-0.2,5.6,11.8
6.9,0.6,306.9,0.8,3.6,1.4
6.6,0.2,307.9,3.4,4.8,6.6
6.9,0.7,307.7,-0.6,-5,-5.2
7.1,0.9,307.8,-0.6,0.8,3
6.3,1.3,307.7,-1.2,3,4.4
6.5,1,306.6,-1.6,-0.8,-3.2
6.9,2.7,306.1,-0.6,-23.4,-6.2
7.2,2.2,305.9,0.6,-6,8.4
8.4,1.5,306.1,1.2,-0.4,-1.8
7.7,0.8,306.9,-5.2,-1.6,-2.8
7.9,0.5,308,-1,0,6.6
7.1,0.3,308.6,3.8,0.6,31.6
9.1,0.6,309.2,-3.2,-2.2,-30.6
6.5,0.7,309.5,-2.2,-9,25.6
8.3,1,309.8,4.2,2,-14
5.8,1.1,309.8,10.4,25.4,40.2
7,0.1,309.9,-1.6,-10.8,-6.6
9.9,2.8,309.9,10,14.8,47.6
8.3,2,310.2,10.4,10.8,-29.6
4.8,1.7,311.1,-3.6,-20.6,3
5.1,2.5,311.6,5.8,5.6,38.2
5.6,2.1,312.1,7.2,7.6,11.4
9.3,2.1,312.3,-0.2,-4.6,-30.4
9,2,311.9,0,-9.2,-9
5.9,1.8,312.1,0,6.2,20.8
8.7,2,312.2,0.4,13,-3.6
8.4,2.6,311.5,4.4,17,2
6.9,2.8,311.1,-1.4,-14.4,7.2
7.3,3.3,310.7,0.8,-1.2,-9.4
7.1,2.3,310.4,-1.8,6,-11.8
5.4,2.2,310.2,-2,7.2,-4.2
5.4,3,309.8,-4.8,-1.8,12.6
4.8,2.5,309.9,2.6,5.4,2.6
3.9,2.6,308.9,-4.2,-3,-19.6
5.4,2.3,308.8,-3.8,-6.4,-30
3.5,2.7,308.7,1.8,18.2,3.4
6.2,2.9,308.7,0.6,-19.4,-34
3.4,2.2,309.3,2.2,5,2.2
7.6,3.5,308.7,-2.8,-11.8,-22
4.1,2.8,308.6,-0.6,1.6,40.6
4.3,2.7,307.9,-1.2,4.6,7.4
6.8,2,307.4,-3.8,5.2,-21.6
6,0.7,307.2,-2.8,-6.6,-0.4
6.1,0.9,307.6,-3.2,0.2,-8
4.9,0,307.7,-0.8,3.2,13
7.1,0.2,307.9,-4,-11.4,-5.2
6.2,-0.1,307.3,3.8,8,-3.2
8.1,-0.4,307.5,-2.2,-4,-12.8
7.9,-0.5,308,-1.8,-5.6,-5.8
7.3,-1.5,308.9,-4.6,3.8,-5.4
8.8,-1.4,309.6,-2.4,-2,-23.8
7.8,-1.5,310.4,-2,-3,-18.2
5.9,-1.6,311.3,1.4,-0.2,-23
6.6,-1.4,313.3,-3.2,6,-1.4
6.8,-1.4,314.4,2.4,5.8,-0.8
8.1,-0.5,315.3,-0.4,-3.8,-21.8
6,0.5,315.7,-0.4,-3.4,-18
8.8,1.6,315.5,-1,-2.6,12.4
6.5,2.7,314.8,-0.6,-2,-10.2
7.1,3.2,314,-3.8,-7.4,14.6
6.6,3.7,312.8,0.4,0.8,8.4
6.9,4.1,312.1,-0.6,-2.6,-12.8
7.6,4.1,311.5,-0.6,-0.4,3.2
6.9,5,310.4,4.2,-4.4,-9.6
6.9,4.8,309.6,-0.8,0.2,-18.8
5.8,4.5,308.2,0.2,-15,15.2
6.6,4.3,306.6,1.4,11.4,1.8
7.4,3.7,304.8,5.2,-7,13.2
8.5,2.9,302.9,0.2,-4,-23.8
7.9,2.1,302.5,-0.2,-4.8,25.6
6,0.5,303.4,-2.2,-1.6,7
7.2,0,304.6,0.2,5.6,-6.4
6.4,-1.1,305.6,0,0.6,4.6
6.6,-1.3,306.1,-3.4,-2.8,11.2
5.9,-2.7,307.2,1.8,-0.8,-4.8
7.2,-1.8,309,-2.4,-5.4,-3.8
7.4,-1.8,310,-5.2,-7,2.4
7.6,-2.1,310.5,-2.2,2,2.6
7.4,-0.7,310.9,0.8,-4.4,-14.8
8.2,0,311.1,-1.4,7.2,-18.8
6.4,0.1,311.6,2,8.2,-2.8
7.3,1.8,311.3,-0.8,-2.6,1.2
7.6,1.4,311.2,5.2,-2,1.6
8.2,2.4,310.7,-2.6,0.8,-1.4
7.1,2.1,310.3,2,-0.2,-1.8
6.4,2,310.1,-4,-3.8,-11.8
6.6,3.1,308.5,-3.8,1.8,-7.8
7.2,2.8,307.1,-1.6,-4.2,-0.6
6.4,2.4,306.3,1.4,1.8,3.8
7,2,305.7,0.8,-0.4,0.6
6.7,1.5,305.6,-4.2,0.6,-12
6.7,1,305.9,-2.4,-1.8,-4.8
5.1,0,306.9,0.8,-2.4,20.4
5.9,-0.1,307.2,0,-0.6,1.6
5.4,-0.5,308.2,1.2,-3.8,8.2
5.2,-0.5,309.2,-4,-1.4,-2
4.6,-0.2,311.4,-2.2,-3.2,4.8
4.2,0.1,311.9,1.8,-0.8,7
5.1,1.4,312,-1.8,1.2,-9
4.4,1.8,311.9,3.4,2.2,8.8
4.6,2.6,310.5,2,-1.8,-9.8
5.6,3.3,307.8,-4.6,10.2,-37.4
4.5,3,307.1,0.4,2.2,-9.8
4.8,2.8,306,2.8,-1.8,2
3.6,2,305.4,-6.6,6.8,-0.8
4.7,1.4,305.8,-2.8,-4.4,2.2
4.6,-0.3,307.9,-0.8,-0.4,-14.4
3.3,-0.9,310.2,0.8,2.4,17
4.5,-1.3,312.9,-0.4,0.4,-9
3.5,-1.3,315.1,1.2,1.8,13.8
4.7,-0.5,316.5,2.4,-2,-9.2
4.4,0.2,316.7,-0.8,-2.8,2
3.6,0.7,315.3,1.6,0,-1.6
3.4,1.2,313.6,-0.6,-2.6,12.2
3.2,1.1,313.6,0,-0.4,4.8
4,1.2,314.2,-0.2,3.8,-3
4.1,0.9,315.2,-1,-1.2,0.2
4.1,0.6,316.5,-1.8,1.8,-1.6
4.8,0.6,317.8,-2.4,-0.8,-5.2
4.8,0.5,319.3,0.2,1.2,-8.6
4.3,0.6,321.4,0,5,1
5,1.1,322.9,-1.2,-4.8,-2.8
4.2,1.5,324.1,2.4,-0.4,7.6
4.4,2.3,324.3,3.4,-1.8,-0.8
4.2,3.5,322.9,0.2,1.8,-0.6
3.9,3.8,322,0.4,2,-7.8
4.4,4.5,320.1,0.8,-2,2.6
3.9,4.9,318.6,2.2,1,2.2
4.7,5.2,316.4,1.6,2,-11.2
3.9,4.9,312.6,0.2,2.6,-5.2
3.6,4.6,309.6,1,2.4,-0.8
4,4,307,-0.8,0,-4.2
3.5,3.5,306.8,0.6,-4.8,2
4.1,2.1,309.1,-0.2,-2.4,-1.8
5,0.9,310.7,-2.4,16,-28.8
6.7,0.9,311.6,-1.6,-5,-37.2
0.9,0.3,313,5.8,10,55
1.6,-0.6,313.5,2.8,-0.6,8.6
4.6,-0.3,313.3,-1,4,15
2.6,-1.3,313.2,-3.2,-0.6,22.4
4.8,-2.5,315.7,0.8,-10.2,2.6
4,-2.8,318.9,4.4,-1.8,0
4.2,-2.8,326.8,0,2.2,7.8
4,-2.6,330.9,-3.6,-4.8,15.6
4.5,-2.1,339.3,-0.4,6.4,2.8
6,-2.3,339.6,4.8,5,-13.8
4.8,-1.8,338,2.6,-4.6,13.8
5.3,-0.8,333.8,-1.2,-0.8,-3
6.4,-0.1,330.8,-3.2,15,6
7.8,-0.5,331.1,0.4,-2.2,5.6
8.6,-1.3,332.8,-1.2,5.6,-0.4
9.4,-2,338.1,-0.4,10.2,-16
9.4,-4.2,348.6,-2.2,-8.6,0.4
7.3,-4.8,353.8,-2.6,-8.8,0.8
5.8,-5.2,358.5,-1.6,-8.4,14.6
8.3,-4.6,1.5,3.6,16,-5.8
8.1,-4.3,3.9,0.6,4.4,-18.2
8.8,-4,8.1,1,2.2,6.6
10.3,-3.8,13,-6.2,-2.8,-41.6
10.2,-3.7,16.6,-0.6,1.2,28.6
11.4,-3.4,19.8,-8.8,4.6,-25.2
11.4,-3.5,23.5,-3,7.8,-26.2
12.3,-4.1,27.6,10,4.8,21.8
13,-4.8,29.7,-3.6,-6.2,-15
11.7,-3.2,33,-2.2,-6,3.2
10.4,-2.6,36.2,-3.2,-7.6,6.8
11.7,-1.3,38.7,1.4,-7.8,-11.8
10.7,0.2,39.7,-3.4,1,-22.2
11.1,0.7,40.3,-2,-2.2,5.4
10.2,2.2,41.5,-2.8,0.4,-20.2
9.1,2,42.7,3.8,9.2,-34.2
5.2,2.3,43.4,6.6,-0.2,43.6
8.6,3.5,42.9,1.4,1.2,-32.6
6.7,3.5,41.2,6.2,11,6.8
6.9,2.9,38.2,6.6,34.4,6.4
8.2,4.1,37,4.8,3.2,3.6
7,3.4,37.7,-4,-3.2,5.2
6.9,3,38.4,0,2,-4.4
6.6,2.6,37.8,0.2,-8.8,7.2
6.5,2.9,37.8,-1.2,-4.4,-6.2
5.7,3,37.9,0.4,5.8,2.6
6.3,3,36.3,1.8,7.2,-4.4
6.4,3.3,33.5,1.6,-2,-1.8
6.2,3.2,31.7,-0.4,1.6,0.8
6.5,2.7,31.7,1.4,3.8,0
6.1,2.3,30.7,3.2,2.2,-1.2
5.9,2,27.4,0.8,3.6,-3.2
5.8,1.5,25.3,-2.8,-1.8,-7.8
5,1.1,26.7,-3.6,-1.4,0.6
5.6,0.5,30.9,0.4,0.6,6
5.5,-0.8,35.8,-0.8,-8.6,3.4
5.5,-1.1,39.9,-1.6,5.8,0.8
5.9,-0.9,41.1,-0.4,2.4,-1
5.9,-0.6,42.2,0.2,0.8,1.6
6.3,0,43.4,1.6,5,-3.4
6.6,0.5,42.8,1.2,3.4,-3.6
6.9,1,41.1,1.6,2.6,-1.6
6.9,1.7,39.3,-1.4,-1,4.6
6.7,2.1,38.9,-3.6,-2.2,0.4
6.8,2.2,41.2,-0.8,-2.4,1
6.7,1.9,42.6,3.2,5.6,-3
7.1,2.1,40.9,4.8,2.4,-7.2
6.6,2.5,37.4,-2.4,1.4,-5
7.7,3,36.5,0.4,-0.6,-5.8
7.5,2.6,36.3,2.4,-2.6,1
7.8,2.1,33.3,3.4,0.6,-0.6
7.8,2.3,27.2,-2.6,-1.4,-2.6
7.8,2.3,24.4,-5.4,4,-1.6
7.6,2.2,26,-6,1.2,-0.4
7.2,1.1,33.5,-1.8,1,-4.4
7.4,-0.6,39.4,0.4,-0.4,1.2
7.4,-1.8,42.1,1.2,1.2,3.8
7.9,-2.1,45.4,-1,-1.4,2.2
8.2,-2.3,52,-2.4,-3,-1.4
8.4,-2.2,56.2,-2,-0.8,4
8.4,-1.1,59,5.8,4.8,-2.2
8.8,0,56.7,4.4,-0.4,-0.4
8.7,1.2,50,3.4,-1.4,-0.4
7.8,3,41.9,1.6,-1.6,3.4
7.8,4.7,33,0,-2.6,7
7.8,5.1,28.2,-3.4,-2.8,1.8
7.3,4.5,24.9,-3.8,-0.2,14.8
9.3,3.5,26.6,-5.2,2,-9.2
9.6,2.5,30.2,-3.2,-1.8,-15.4
8,-0.1,37,-7.2,20.4,-11.4
7.9,-2.2,48.1,-0.2,3.6,8.8
7.9,-2.8,51.4,5.2,6.2,22.6
8.4,-2,53,1.2,21.2,-11
9.7,0.9,53.2,-2.4,-1.6,-36.2
9.2,1,53.5,0,-5.8,3.8
7.5,1.3,50.9,5,-9,6.6
7.2,1.8,44.6,0,-1.6,-8
7.6,2.6,38.8,1,-1.2,2.2
5.6,1.9,35,-2.4,-7.2,14.2
9,1.9,34,5.8,11,-5.6
7.7,-0.2,33.3,0.4,2.4,26.4
7.7,-2.5,35.1,-4.4,-5,-23.8
4.8,-2.2,41.7,2.2,5.6,14.8
6.4,-2.7,50.2,5.4,-4.2,0.2
7.1,-2.4,53.1,0.8,-7,-0.2
7.9,-0.9,53.3,2.6,7,5.2
10.4,0.3,52.1,-1.6,2.2,-11.2
10,1.4,52.1,-3,-2.6,2.8
10.4,3.2,53.2,3.4,1.8,-6.2
10.2,3.3,51.9,3.6,1.4,-0.6
8.7,3.9,48.9,3.4,-4.2,5
8,5,46.2,-5.2,1,7.6
8.6,5.9,46.1,-0.4,7.4,2.4
11,5.4,46.3,1.6,7,-0.4
12.3,3.9,42.6,4.4,0.4,-5.2
14.2,0.2,39.9,3.2,-8,-0.6
11.2,-2.3,39.9,-1.6,-3.8,9.8
10.6,-3.4,38,2.2,-10,-20.8
10.9,-5.5,38.2,-1.4,-5.4,-19.6
11.5,-5.8,41.5,-5.6,4.4,16
11.5,-3.3,45.2,-9.6,2,12.4
12.3,1.6,45.9,-1.2,-6,10.2
10.1,4,46.8,-3.4,7.6,2.2
11.2,3.9,46.3,-2.4,17.2,-6
13.1,1.8,44.1,0.2,-4.6,6.2
13.9,-2.6,43.8,11.2,5,-8
13.1,-6.6,47.5,7.4,0.2,-2.8
10.4,-3.9,49.1,-6.2,-2.8,-6.6
8.6,-1.2,46.7,-2.8,1.8,-10.2
10.7,1.7,44.5,-1,14.8,-0.6
13.2,4.6,43.3,-9,-2.4,6.6
12.3,5.3,42.8,-4,-7.8,0.6
9.3,4.2,44,-1.2,4.6,11.8
9.6,2.3,42.7,0.2,7.8,7.8
12.6,-1.8,42.5,8.6,11.8,-13.4
14.2,-5.7,44.7,6.2,-9,4.8
11,-5.6,47.4,2.6,-8,5
9,-0.4,47.6,-9,7.4,-8.4
8.5,2,47.1,-3.4,2.4,-28.6
11.3,6.1,45.9,-7.4,1.2,5.4
10.5,8.4,42.4,-12.4,-10.4,-26.2
7.8,6.5,42.6,2.6,-12.4,1.4
7.5,3.5,43.6,10.8,13,-1
13.2,-1.4,44.1,17.8,12.6,42
10.8,-4.3,45,8.6,-30.2,-24.2
9.8,-0.7,43.5,9.6,23.4,35.8
5.4,2.1,42.3,-1.2,1.6,-21.6
9.5,5.5,41.8,-15.2,9.2,10.6
10,7.9,40.6,-0.6,6.4,12.8
7.9,7.4,42.1,4,30.2,9
8,5.8,42.2,6.4,17.2,-17
11.5,1.3,41,11.8,-9.2,13.6
11.7,-2,43.3,3.8,3.4,-5.6
13.7,1,42.9,-5,18.6,-14.4
14.9,4.8,42.6,-11.6,17.6,-2.6
20.2,8.5,40.8,4.6,19.6,8.6
17.1,9.4,37.2,4.2,6.2,-14
16.5,6.9,35.5,4.4,-1.4,6.2
16.5,0.5,32.6,7.2,-13.2,-27
16.1,-7.5,33.6,4.8,-18.2,-10.2
12.2,-7,38.2,-9.4,1,10.4
12.8,-1.8,38.6,-8.4,8.4,-4.6
15.5,1,38.6,-9.6,6.8,-2.2
16.6,1.7,37.2,5.8,-2.4,-0.8
12.6,-0.6,41.1,-3.8,-13,-1.8
9.5,1.1,40.6,-3,-10.4,11.2
8.9,1.9,39.9,-3,2.6,-16
6,1.5,40.5,-0.2,5.6,11
5.6,1.5,41.3,2,4.4,11
5.2,2.6,42.1,-0.4,-18.6,-8
4.1,2.9,42,6.6,-1,-14
6,2.7,41.7,1,6.8,13.8
5.6,2.8,41.3,1.8,3.6,-19
6.9,3,40.8,3.4,4.2,7.4
7.7,3,40.6,4,1.6,-2.4
7.6,3.1,40.2,0.4,3,-9.6
6.9,2.5,39.8,0.2,5.4,-2.8
6.7,2.2,39.2,1.4,-5.2,6.4
6.9,1.7,39.3,0.6,1.2,-3
7.4,1.5,39.5,-0.6,-1.2,0.8
6.5,1.8,39.5,0.8,-3.4,5.8
5.6,0.8,40.1,-1.4,-7.2,6.4
5.6,0.8,40.4,2.4,3.8,-1.2
5.7,0.2,40.7,1,-2.6,11
6.4,0.5,40.8,0.2,-1.8,-1.4
5.5,0.5,40.9,2.2,4.6,-3
6,0.4,40.8,-3.8,-4,-4.8
5.8,0.1,41.2,-1.4,5,5.4
6.3,0.2,41.4,1,-2.6,7.2
6.7,0.7,41.8,-1,-6,-6.2
6.7,0.7,42.1,0.4,4.2,-5.8
6.1,0.9,42,2,-4,1
6.7,1.6,41.9,-0.4,0.4,-6
6.3,1.9,41.5,-1,-0.8,5.6
5.8,1.9,41.1,0.2,-2,-0.2
7.3,2,40.8,3.4,3.2,-14.4
9.1,2.1,40.1,5.2,2.8,16.6
6.9,1.5,40.5,5.4,9.2,26
5.9,1.7,40.6,-0.6,0.8,1.6
6.7,1.9,40.4,-0.6,6.8,5.6
8.5,1.8,40.5,0.6,-5.2,8.6
8.9,1.7,40.7,0.2,-2.6,-13
9.2,1.8,40.6,0.2,-2.6,-9.4
8.5,2,40.6,-0.4,13.4,-19.2
6.8,3.4,39.9,0.6,19.8,11
8,4.2,39.3,-7.8,5.8,-22
6.9,3.2,38.5,-1.6,5.8,21
8.6,2.9,38,2.8,-8.8,-21.6
5.5,2.4,37.8,4.2,6.4,-36.2
8,4,37.6,-3.6,-10,-19.6
3.6,3.6,39,-2.2,-1,15.4
4.7,2.4,39.6,-1.6,14.4,-19.2
4.8,1.9,39,4.4,9.8,15.2
5.7,2.7,37.6,-2,-1,-13.2
4.8,2.4,36.7,-1.8,-14.2,-23.2
2.3,3.2,36.6,-2,-1.2,2.2
3.4,2.6,36.4,5,9.8,16.6
4,2.1,36.4,-1.2,13.4,-31.8
5.5,2.1,36.1,-0.4,-2.4,29
4.5,-0.1,36,4,2.6,-6.2
3.4,0.9,35.7,4.4,22.4,5
3.1,0.1,35.8,-0.2,15,16.6
6,-2.7,36.3,1.2,-2.6,-32.2
3.9,-2.2,37,-3,-11,-3.6
5.1,-2.6,39.2,-5.4,3.6,10.2
6.2,-3,40.4,-3.4,-13,-14
5.3,-2.6,41.2,-3.6,-6.8,8.4
6.2,-2.7,42.2,5,-0.2,21.4
6.4,-2.1,42.8,-3.2,4.4,14.4
5.1,-0.3,43.5,-2,-11.4,-4.8
5,0.3,44.4,0.6,12.4,5.2
6.2,0.7,45.1,0.8,-1.8,-16.2
4.9,1.3,45.4,-2.8,17.4,-0.6
4.9,1.4,45.3,1.4,-0.4,-0.4
5.7,1.7,45,2.8,5.2,-18.4
5.8,2.8,45.1,-5.6,-15.4,-34.4
5.8,1.9,45.1,5.6,10,13
5.2,2,45.5,-0.8,-6.6,8.4
6.9,2.7,45.7,2.2,2.6,-22
7.8,2.2,45.8,3.6,-8,-6.8
7.2,2.6,45.3,0.8,-7.8,1.6
6.6,3.3,44.9,2.2,1.6,11.2
6.1,3.6,44,4.6,-3.8,-0.2
6.7,3.3,43.4,3.8,-2.4,-2.8
6.1,3,43.2,0.2,8.8,3.8
4.7,3.3,42.6,4.8,6.8,-4.4
5.8,3.9,41.2,-3,6,4.4
7.4,1.9,40.7,0.4,-11,11.8
6.9,1.1,40.8,5.2,17.4,10.2
6,0.4,40.6,-0.6,-1,-25.2
3,0.7,40.5,4.2,22,13.2
4.7,0.5,40.3,0.2,4,-20.6
5.2,0.6,39.1,0.6,25.8,-5.8
3.6,2.6,38.9,-4.4,-10,-14.6
8.9,2.2,38.9,0,-23.4,11.6
7.6,0.1,38,7.4,2.4,8
8.3,-0.8,38.3,5.2,4.6,11.6
9.8,0.5,38.8,-5,-1.8,-7.6
8.7,0.5,39.7,2.6,-40.4,50.8
8.6,-0.3,40.2,2,-10.2,45
6.5,-0.4,41.7,4.2,-4.6,28.8
7.6,0.3,42.6,1.4,5.4,-19
8.5,-0.8,42.8,-4.8,6,-7
10.4,-1.3,42.9,-1,-6.6,-8
8.5,-0.9,43.5,-3,-3,10.6
7.6,0.1,44.2,1.8,7.8,4.4
8.8,0.9,45.5,-7.4,-6.2,-16.6
10.2,2,46.2,-1.8,-27.2,-14.4
5.8,2.8,46.5,-0.8,4,10.6
5.6,3.2,46,-3.6,20.8,-85.2
1.9,3.5,44.8,8.6,-1.8,61.8
3.3,4.8,43.6,-0.4,7.6,-22.4
3.5,4.7,43.5,-7,-12.4,-26.4
2.1,4.9,42.8,-5.8,-31.4,-48
4.2,3.2,41.7,1.6,37.6,26.6
7.2,1.8,41.4,-3.4,9.6,-34
8.4,3.7,41.4,-1.6,-13,56.6
3.3,1.2,41.6,-12.2,-29,-62.6
6.8,2.4,40.5,-0.8,1.2,11
3.9,2.3,40.1,1.8,13.8,-1.6
4.8,2.7,40,-0.4,3,-0.6
6.2,2.7,39.8,5.6,-3.4,-21
4.3,2.3,39.9,5,32.4,4.8
4,2,39.3,-0.8,-7.8,7.8
5.2,1.2,38.3,3.2,6.8,20.4
4.9,2.4,37.1,-6,-4.2,-1
6.1,1.7,36.8,-0.2,8.6,-1.6
5.1,1.2,36.7,2.8,-7,5.8
3.3,0.5,36.9,0.8,8,-1.6
5.1,0.2,37,-0.8,20.4,0.2
7.6,0,37.2,-2.8,10.8,-1.4
9.7,-0.4,38.1,5.2,16.4,-15
8.8,-0.8,38.2,-1,4.4,-4
6.9,-0.7,38.8,0.8,7.2,-5.6
6,0,39.1,-2.8,-10,3.4
6.9,-0.4,39.3,-0.8,0.8,-13.2
5.4,0.2,39.6,0.8,-1.2,0.4
6.1,0.5,39.5,-0.4,11.6,-14.8
5.3,0.7,39,1.2,-16.6,31.4
5.3,0.8,38.7,-1.2,0,18.6
5.8,2,38.6,0.4,-9.2,-29.4
4.1,2,38.6,-0.6,1.4,10.6
4.3,0.9,38.8,4.2,7.6,-12.4
4.3,2.4,38,-5.6,-53,86.4
0.4,2.5,37.5,6.6,7.8,49.2
4.9,2.5,36.3,-4.8,-3,-11.6
4.2,2.1,35.6,-2.4,0.6,-14.2
3.2,0.9,35.5,-1.8,6,3.2
5.4,1.4,35.8,-4,1.4,-21.2
7.8,0,36.1,-0.4,8.2,-31.8
5.4,-1.6,36.6,-7.8,-4.2,-27.8
5.5,-1.1,36.5,0,14.2,14.6
7.1,-1.6,36.9,0,-1.2,-11.4
6,-1.7,38.1,-1,-4.8,-15
5.1,-1.1,39.5,-4.8,-13.8,4.6
4.4,-0.6,40.9,-5,-3.2,41.2
7.4,-0.3,42.3,5,13.4,-4.8
6.3,0,42.6,-1,-2.4,-5.8
5.1,1.1,42.6,3.8,8.4,0.2
5.9,1.9,42.1,-2.2,-14.8,15.6
5.9,1.8,42,2,0.6,18.8
7.4,1.9,41.9,3.4,-33.4,64.2
8.4,2.6,41.3,0,-35.4,14.6
5.8,3,41.2,7.8,-5.2,21
6.7,2.5,40.7,6.6,-3.4,13.8
6.8,2.3,40.1,0.4,15.8,0.6
6.1,2.1,39.5,1.4,16,6.2
6.3,1.8,38.8,2,-16.2,56.4
4.9,1.7,38,2,-15.4,18.8
3.2,2.6,37.3,-3.2,15.6,16.2
5.5,1.3,37,10.2,-14.4,-12.8
3,0.5,37.2,1.8,2.2,-3
4.3,0.5,37,-6,-9.8,-16
4.3,-0.3,37.1,4.6,6.2,7.2
5.9,0.6,36.8,0.4,9.6,-2.4
6.2,-0.4,37.1,-4.4,-4.6,-3.4
6.7,-0.7,37.2,-0.2,-0.4,-1.8
6.5,-0.7,37.6,-4.4,3.4,-12.6
7.5,-1.3,37.9,-2,-0.8,-0.4
5.8,-1.6,38.8,0.6,8.2,-17.2
6.8,-0.9,39.5,-3,12.2,-0.6
6.3,-0.4,39.8,-1.4,-0.2,-8.2
5.4,-0.9,41,0.4,1,2.4
6.1,0.2,40.7,1.6,13,9.4
5.4,-0.1,41.2,-5.2,5.4,-28.6
7.4,0.9,41.6,0.4,4.6,-5.6
7.2,1.3,41.5,1,4.8,-23.6
5.3,2.1,41.6,3,10.4,23.4
7.6,2.9,41.2,1.8,-13.6,-17.4
3.8,2.6,41.3,5.8,3.6,0.6
5.9,3.8,39.8,0,17.6,-13.6
4.2,1.9,38.2,1.6,-0.2,20.6
6.2,2.7,38.1,-3,3.2,-4.2
7.5,0.9,38.4,4.4,6.2,15
8.1,1.1,38.6,-3.4,-8.6,7.8
8,0.6,38.5,-5.8,-6,-18.8
7.9,0.9,37.9,2,12.2,-21.8
6.9,0,37.6,-2.8,7.6,-27.2
9.4,1,36.4,10,31,35.6
7.9,-0.3,36.8,-4.4,3.2,-0.8
8,-1.3,36.8,-3,3.8,-2.6
6.1,-1.1,38.1,2.4,11.8,-10.4
5.2,-1.7,38.9,5,7.6,21.2
6.7,-1,39.7,4.8,-7.4,-8.6
7.4,-0.4,39.5,-2.6,-4.6,11.4
5.5,-0.6,39.4,-2.8,13.4,-26.8
6.4,0,39.1,2.6,9.2,-10
9.7,0.7,38.9,-3.6,-2.8,-22
5.5,-0.1,39.2,4.6,-10.6,22.2
6.1,1.2,39.9,-4.8,-5,12.6
6.9,0.6,39.8,-2.4,10.8,-16.2
6.3,0.4,40.3,1,2.4,3.6
6.3,0.7,40.1,1.4,-1.4,4
5.6,1.3,39.7,-0.4,2.2,-10.4
5.4,1,39.4,2.4,7,-4.8
6.6,0.9,38.9,-0.2,-4.6,10
7,0.6,39.1,3.2,-5,-19
7.2,1,39.6,2.2,-9,12.8
8.8,0.9,40.5,0.2,28.8,-6
7.5,2.5,40.7,6.8,1.6,33
9.6,2.1,39.8,-5.4,-8.8,10.6
11.4,2.4,38.6,-1.8,-19,-8.4
12,1.9,38.6,4,5.8,33.6
9.9,1.7,38.2,1.8,-6,-29
9.7,0.9,38.1,-3.6,4.6,-24.2
7.3,1.9,38.2,-1.6,-35.8,-12.6
5.9,0.3,38.6,1,77.4,16
8.6,1,38.9,5.8,1.6,78
6.2,1.4,39.5,-5.4,2.2,-62.8
7.5,-0.8,39.6,1.6,3,-6.6
5.2,0.5,39.7,-0.6,15.8,26.2
3.4,-0.7,40.4,-0.2,12.6,-29.8
6,-0.5,40.7,0,1,-5.6
7.8,1.3,41.1,-5.8,-0.6,-44.6
7.9,1.2,40.7,0.6,-14.4,-10.6
9,1.8,40.3,1.2,-2.8,8.6
6.7,2.1,39.9,1.8,5.8,-14
8.1,1.9,39.3,-0.2,-7.2,-7.2
7.1,2,39.3,2.6,-2.6,-13.8
7,2,39.2,-2.2,-7.2,-6.8
6.8,1.4,38.8,1.8,-3.2,-3.2
7.7,0.7,38.4,-3.6,-6,-5.6
4.6,0.1,38.4,-0.6,-5.8,5.4
7.4,0.3,39,-3.4,11.2,-28.8
6.6,-0.3,39.7,-2.8,-1.6,0.2
7.1,-0.4,40.6,-1.8,7,-3
6.7,-0.1,40.9,2.8,-0.4,0
7.3,-0.4,42.3,4,9,-2.8
6,0.5,42.6,3.8,-0.8,23
7.3,1.9,42.6,-0.8,-2,15
5.6,1.6,42.3,-1.2,-11,-25.8
7,2.3,40.9,4.2,15,4.6
6.2,2.5,39.2,3.8,-16,28.8
5.5,2.4,38,2.6,1.4,20.6
7.3,2.2,37.9,-1.6,-2.2,0.6
4.7,0.5,38,2.2,0.2,11
5.7,0,38.3,2.6,6,-2.6
6.4,-0.6,39.1,-1.4,-2.8,0.6
6.7,-0.3,41.2,-0.6,1.2,-2
6.6,0.2,42.4,-1.6,-2,-0.4
8.3,1,40.8,-0.4,-24,44
10.6,2.5,40.1,-9.6,3.8,-55
11.1,2.9,38.9,1,25,-7
12.1,2.4,38.9,-8,0,-7.6
11.3,0.9,39.6,7,17.4,5.2
12.4,1.2,39.3,-2,-12.6,0.4
9,1.6,39.5,-0.2,-0.8,8
9.3,2,39.5,-1.4,-4,-4.2
11.5,1.3,39,3,6.2,16
20.2,1.9,39.5,5.2,39,-43.8
14.4,0.6,39.3,3.6,93.4,47.2
13.4,0.8,39.2,-1,-2.6,1.8
11.4,0.8,39.5,-1,0.6,15.4
11.5,1,39.9,-2.4,-15,-4
9.9,0.7,40.4,2.6,-5.4,22.8
10.9,1.3,40.9,2.4,8.4,2.6
15.3,1.1,40.6,-0.4,5.2,-4.8
14.8,0.9,40.6,-1.2,-22.8,1.8
12.7,1.3,40.3,-2,2.6,-5.4
12.9,1.2,40.1,-1.2,-11.2,-1.6
11.6,1,40.7,-3,-11.8,13.6
11.4,1.4,41.3,-0.4,3,-10.8
9.6,1.4,41.2,0.6,6,3
10.4,1.6,40.8,-1,-8.4,-6.6
8.5,1.2,40.1,-1.8,-4,-4.6
8.9,1,39.8,1.4,-18.4,-7.2
6.4,0.8,39.6,-3.2,0.6,3.6
7.2,0.7,40.2,1,4.6,4.4
7,0.3,40.5,-0.8,-5.4,0.2
7.2,-0.2,41.4,-1,-0.8,-2.2
6.1,0.1,42,1,7.2,-4.4
7.8,1.1,42.4,0.4,-6.2,0
9.2,1.4,42.4,8.8,-5.2,47
5.9,1.2,41.7,-6,-24.8,4.8
8.4,0.3,40.1,6.8,11,2
9.5,0.3,39.5,0.4,-4.8,8.8
8.7,0.4,39.9,-6.8,2.8,-17.8
9,-0.2,41.8,-0.2,-5.2,13.6
8.1,-0.2,42.2,4.8,-3.4,12.4
11.2,2,41.3,-1,4.4,-1.6
10.6,0.5,41,1.8,-14.2,14.4
9.6,1.4,39.7,-0.6,-12.6,8
9.5,1.2,38.9,2.8,4.6,-8
11.7,0.5,38.9,-5,-12.8,-12.4
8.2,1,40,-9,-27.2,-6.6
5.7,-0.7,41,8.2,27.2,21
6.6,-0.8,40.8,5.4,-3,25.4
6.1,-0.6,40.3,2.6,16.8,19.8
8.4,0.7,39.6,-5,13.2,-6.6
9.8,-0.5,39.5,-2.2,-1.4,4.8
11.6,-1,39.5,-3,1.2,8.6
9.8,-1.3,39.2,2.2,-16,12.2
8.8,-1.2,40.1,-0.4,-7.2,14.4
9.4,-1.1,40.1,1.2,-5.6,-2
10.8,-1.6,40.7,1.6,-17.8,-0.4
9.5,-1.1,40.8,-2.4,-2.2,-11
8.3,-0.8,41.2,-7.2,4.8,28.2
9.7,-0.8,41.4,0.4,-3.2,-10.2
8.7,-0.2,42.1,0.2,-15.4,5.2
8.9,-0.2,42.3,0.2,-4,3
10.4,0.8,42.8,-1.4,-0.2,-20.4
8.6,1.2,42.5,-5.8,-16.2,15.2
6.8,1.3,42.3,3.4,5,-4.4
13.2,2.1,41.8,0.4,3.4,-17
9.3,1.8,41.5,-2.6,-43,3.6
7.9,1.4,40.9,0,10.4,-24
6.5,2.6,40.6,-2.2,16.6,-30.2
6.9,1.4,40.3,2.6,4,35.8
5.9,1.7,40.9,-3,2.2,-3.2
6.9,2,40.8,2,-1.4,1
6.4,1.4,41,3.6,5.2,-8.8
5.7,1.9,40.6,1.2,4.6,-12.4
7,1.6,40.2,-1,-17.4,2.6
7.7,1.7,39.5,-1.8,4,-20.6
6.8,1.1,39.6,1,-0.2,-35.2
4.7,0.8,39.7,-0.4,8.2,7.4
4.7,0.4,39.5,-5.6,4,-12.8
6.2,0,39.6,-1.4,-8,13
6.6,0.7,39.4,-1,1.6,-1.2
8.6,-0.8,39.2,-6,-9.4,-18.2
7.9,-0.5,39.1,-2.6,11.6,17.4
9.3,0.1,39.7,-0.8,-4,-12.8
8.9,-0.1,40.1,0.6,-8,29.4
7.8,0.1,40.1,1.4,11.8,-9.2
7.6,0.3,40.5,-4,-24.6,-11.8
7.6,0.9,39.7,-3.4,4.2,-15
8.5,0.7,40,-0.4,0.6,-13.6
7,0.6,39.4,6.2,14.8,-1.2
10,0.7,39.6,-0.2,1.8,-3
9.1,0.1,39.4,-1,-9,-18.2
10.9,-0.7,40.2,-2,3,27.8
10,-0.6,40.3,2.6,-20.6,25.2
9.6,-0.3,40.8,6,-1.8,-0.2
9.7,1.1,39.9,4.4,7.2,1.6
7.2,0.8,39.6,4.2,-9.6,53.2
7.1,0.7,39.3,-0.8,-14,11.8
8.6,0.5,38.7,-4.6,-3.6,-21
5.7,0,38.7,0.6,11.8,7.8
7.3,-0.5,38.7,0.2,0.8,1.2
4.5,-1.4,39.4,-4.4,-13.6,11.4
5.2,-1.4,40.3,-7.2,2,1.8
3.3,-2.6,41.4,-5.4,0.8,-47.8
7.1,-1.5,43.5,-0.6,27.8,27
3,-1.6,44.4,1,7.4,-20.4
7.4,0.5,45.4,1.4,9.2,11.2
6.7,1.4,44.8,5,-0.8,-6.2
6.9,2,44.6,-4.4,4,-2.4
7,2.6,43.8,4.6,2.6,8.2
9,3.1,42.6,3.4,19.4,-26.2
10.5,2.7,42.5,10.4,10.6,3.8
9.9,1.7,42.6,-0.6,-7.4,-16.2
9.9,2.2,43,-1.6,-2.6,-2.4
10.9,2.8,42.7,-3.4,-2.6,-3.2
10.4,2.3,43,2.2,-3.2,17.4
10.4,2.2,42.9,-3.6,-6.6,-7.2
10.5,2.3,43,0.6,-3,-3.4
10.7,1,42.7,1.2,0.6,-12
14.4,1.3,42.6,2.2,2.2,12.4
11.7,2.4,42.5,-3.6,-4.6,-11.6
10.3,0.9,43.6,-3.8,3.4,-14.2
12,1.8,43.8,-4.2,-6.8,-21.8
12.5,2.9,42.1,-2.6,-7.6,-19.2
15.8,3.3,40.7,-9.2,-26.2,-60.4
13.8,1.6,40.5,0,32.6,23
12.6,1.4,40.4,0.2,-9.6,6.8
10.4,-2.3,40.3,11.8,10.8,0.4
11.6,-0.7,40.5,5,41.4,20.2
10.6,0.6,40.7,-5.2,10.4,5.2
12.3,1.8,40.9,-3.8,6.6,-9
8.1,0.9,41.5,7.2,6.4,26.2
10.4,-0.6,41.6,-3.6,-6,30.8
9.4,-0.1,40.9,0.6,16,8.4
11.2,0.6,40.5,0.2,11.4,-20.8
7.1,0.5,40.2,0.8,-13.2,39.6
12,0.1,41,1.4,0.6,-55.4
6.8,0.5,41.1,3.6,0.4,44
8.6,1.3,40.5,4.2,-3.6,-16.8
9.1,1.2,39.8,3,-35.4,-20.8
10.8,-0.3,39.4,11.2,12.6,55.4
10,-1.8,40.3,5.4,-0.8,49.6
9.6,-2.2,40,0.8,-10.4,-20.6
6.6,-1.6,40.6,-5.6,-1.4,-1.6
8.8,-1.3,40.6,0,1.4,-18.4
8.8,-0.5,40.6,-4.4,-0.8,-17.8
5.7,-0.9,40.4,3.2,-7,36
10.9,-1,40.6,-5.4,-33.2,-36.6
12.2,0.2,40.6,-2.6,28.8,-59.6
9.7,0.8,40,3.2,60.6,-13.4
9.8,2.7,40,-2,16.8,-43.2
10.9,0.3,39.6,1.8,11.6,4.8
10.4,-0.3,41.5,-1.6,-7,-5.2
13.6,0.1,42.4,-4.2,-13.6,-40.4
9.4,-1.4,42.7,8.8,-6.4,59.4
11.4,0.8,43.4,-8.4,-3.8,-52.6
5.3,-1.3,43,7,-5.8,15.6
1.9,1.9,43.1,2.8,-33.6,103.6
7.9,1,42.6,13.2,27.2,-24.6
8,2.3,42.1,0.2,10.6,-10.6
8.6,2.7,42,-0.8,6.8,-8
2.2,1.3,41.6,3.8,26.4,-65.6
8.7,2,41.5,5.8,52.6,-28
11.2,1.9,41,3.8,11.6,-34
7.4,1.6,40.8,2.8,-11.6,7.2
7.1,1.8,41,-1,1.8,-1.6
7.1,1.2,40.4,-0.2,-14.4,49.6
6,1.9,40.6,-0.8,0,35.2
8.4,1.4,40.8,2.8,21.8,-12.6
9.8,1.2,41.2,-8.8,-5,-69
7.1,-0.5,40.8,0.8,-21.4,85.4
6.6,0.8,41.1,-2.8,-18.4,-1.8
9.8,2.5,40.4,3.6,-29.8,5.8
6.6,2.9,40,1.6,35.6,6.2
6.9,1.9,40.9,-2.2,24,4
8.2,4.5,41.6,-7.2,-15.8,-65.4
5.1,3.5,41.3,1,5.6,11
5.1,3,41.5,-1,-1.6,-14.2
4.5,4.1,41,1.8,-31.8,51.6
3.5,2,40.5,0.6,-28.6,-4.6
5.6,1.9,40.9,-1.8,1.8,-40.2
4.8,0.7,41,5.2,9.8,-20.4
5.1,1.3,41.5,-6,0.2,-25.6
4.2,0.8,41.7,0.8,5.4,-20
3.9,1.3,42.3,-1.4,-32.6,19
4.5,2.2,42.6,3.4,8.8,21.8
6.1,3.4,42.1,1.2,7.8,-18.8
6.5,3.2,40.2,3.6,17.6,11
6.6,1.2,39.1,5.8,8.6,6.2
6,1.2,38,-2.6,-0.8,-27.4
3.6,0,38.1,4.4,-15,41.6
5.3,0.2,38.8,-0.8,-10,-0.8
8.3,0.9,38.4,-5.8,-11,-28.6
4.1,-0.3,37.1,-7.4,-5.8,36.6
8,-0.6,37.3,-11.6,-13.2,-41.2
5,-1.7,38.8,-1.4,-21,7.4
4.8,-4,39.6,-4.6,-4,8.2
1.7,-4.1,40.4,0.6,-25.2,75.4
4,-5.1,42.4,4.2,13.4,4
6.2,-4,45.5,-10,-10.8,-19.2
1.7,-4.8,47.3,6.4,-17.6,34
3.8,-2,48.5,0.2,-30.2,-3.6
2.8,0.7,48.5,2.6,6.4,-17.6
5.3,2.9,46.9,-6.6,-7.2,2.4
3.9,3.5,45,-1,-3.2,-2.8
8.4,4.2,43.1,-4,18,-49
10.2,2.9,41.6,3.6,15.8,33.8
6.3,5.8,41.7,-5,18.2,6.8
7.2,4.3,41.5,-3.6,-35.4,18.2
5.4,3.4,42.4,4.6,-2.2,16.4
5.6,2.6,42.8,-0.4,-8,-1.8
5.2,4.1,43.5,-0.8,1.4,37
6.7,4.5,43.3,-5.8,-22.2,4.8
5.2,3.3,43.1,4.2,-7.4,4.2
6.1,4.4,42.5,-0.6,-24,-3.2
6.6,3.4,41.6,0,7.6,16.4
6.8,4.2,40.6,-3.8,-2,-38.8
2.5,2.8,40.9,4.6,-17,28.8
3.7,2.2,40.6,4.4,-7.6,-14.8
6.5,1.7,40.9,1.6,-22,28.8
7.8,1.5,40.9,-4.8,-1.6,2.4
7.8,1.4,39.9,4.6,-15.6,10.2
7.7,1.2,39.8,0,2.6,2
9.9,1.3,40.7,2,13,-22
9.8,0.4,40.6,-3.4,16.2,-15.4
10.9,-0.2,39.6,-4.4,-30.6,4.2
8,-0.4,40.4,0.4,-12.4,29.8
11.3,-0.6,40.4,-5,-5.2,-11.6
12.2,-1.3,41.6,-1,-13.6,5
11,-0.6,42.2,0.2,-4.2,4.4
12.2,0,41.1,8.4,-5.8,29
11,0.1,40.7,-1,18.6,-50.8
10.6,-0.1,40.4,-2.4,-8.2,-34.8
10.5,1,40.8,4,17,45.2
11.3,1.1,42,-0.2,-9,-30.4
10.3,1.2,41.5,2.6,0.8,7.4
11.4,1.8,41.8,1.4,11.2,-32.2
8.8,1.7,42.2,-1.2,0.8,-3.6
6,2.1,42.6,1.2,-3.8,-9.6
8.2,2.5,42.2,-2,-21.6,-30
6.2,2.6,41.4,3.6,4.6,6.6
10.6,1.1,39.7,-1.4,-31.8,-57.8
7.8,1.5,39.3,-3.8,26.6,-28.2
3.8,0,39.7,-0.4,-19,-29.8
4.2,0.5,39.9,4,2.2,9.8
3.6,0.6,41,10.8,11.6,-28.4
2.4,-0.7,41.8,9,-12.2,36.6
0.9,0.9,42,-6.8,-24.2,-53
0.4,1,41.1,-1.6,-4.8,9.4
1.4,1.2,40.6,0,8.4,-0.2
3.9,0.9,39.7,0,11,28.6
3.1,-0.2,40.2,4.8,7,26
5.7,0.2,41.4,-1.6,-4.8,-2
5.3,-0.4,42.1,-0.8,-9.4,-3
4.5,-0.2,42.6,5.8,0.4,44.8
8.1,1.3,42.3,-3.8,-9.2,-26.4
4.5,1.5,42.4,0.2,-1.2,21.8
7.1,1.8,42.7,-1.4,3,-42.8
5.8,1.9,42.2,-1.6,4.2,-3.6
3.7,2,42,1.4,-2.2,18.8
5.3,2.5,42,-4.2,-1.2,-21.6
4.1,1.6,42.3,2.8,-1.2,17.2
5.9,2.5,42.6,3,-7,-4.8
5.1,2.6,42.6,-3.8,2.2,-50
12.3,2.5,41.8,8,29.2,58
9.4,2.8,41.4,5.8,22.2,-41.2
7.8,2.7,41.2,0.6,19.8,-77.2
9.8,4.1,40.9,1.4,-9.2,18.6
5.2,2.5,40.7,2.8,11.8,18.2
10.3,2.9,40.6,1.4,-19.8,-38.6
6.4,2,40.7,5,6.8,22.8
3.7,2.8,41.1,-2,-6,19
4.1,2.5,40.5,0.8,4.6,18.8
6.6,2,40.6,-4,-33.2,18
10.6,1.9,41.3,2.2,5.2,-103.6
-2.3,2.7,40.8,8.8,51,122.8
4.8,2.4,39.9,-1.6,5.2,35.6
0.4,2,40,1.2,-1,43.6
3.5,2.2,41.2,-2.8,-4.6,-22.4
3.9,1.4,42.6,0.2,-4.8,-28.8
3.8,1.1,43.1,4.8,6.4,-17
7.1,2,42.4,-1.4,5.2,-38.2
5.5,0.5,43.1,4.8,6,1
6.6,0.4,42.4,-2.8,-7.8,21.6
6.1,0.5,42.5,3.2,11.4,18
8.1,1,42,1.6,6.4,-3.6
8.9,1.1,41.3,0.8,8.6,-5.8
8.5,0.1,41.4,3.2,-5.4,20.4
7.9,-0.2,42.6,-1.8,-2.6,-4.4
5.3,-2.4,42.6,3.2,-18.4,28.6
9.5,0.4,42.9,-2.8,15.8,-29.2
8.2,0.6,43,-7,0,14.2
11.4,-2,43.2,-1,32.6,28
8.8,-0.1,43.2,0.4,-19,-23.8
5.1,-1.5,43.8,-0.2,2.8,23.8
7.5,-0.4,43.9,1,-11.4,-11.4
7,-0.1,43.9,0.4,1,-8.8
7.5,0.5,43.8,1.2,-10.4,-2.4
6.9,0.4,43.4,4.8,17.4,7.2
5.1,0.5,43.5,3.8,3.8,30.6
4.5,0.4,42.9,4.8,-1.4,40
8.3,1.1,42.8,-1.6,-49.6,-40.8
3.4,1.1,42.5,3,-11.2,9.4
4.1,0.7,41.7,3.8,5.2,7.4
6.2,1.4,41,0.8,-5,-18.8
5.5,1.6,40.4,-1.2,-0.2,1.4
5.6,1.2,40,-4,-2.6,4.6
5.5,1,39.6,0,4.8,-1
5.8,0.4,39.4,2.2,-6.2,-1
5.7,0.4,39.3,-0.8,4.2,-8.6
5.4,0,39.5,-0.4,3.8,-14.4
6.4,-0.3,40.3,-1.2,-1,0.6
4,-1.1,41.1,1.8,4.2,25.2
5.2,-0.9,41.7,1.4,-0.6,-5
5.6,-0.1,41.7,3.2,2.2,6
8,0.1,41.7,0.4,-4,-5.4
6.7,0.8,40.7,-0.6,-2.6,-3.6
7.2,0.6,40.1,-2.8,13.2,11.8
8.2,0.9,39.5,1,4.6,5
9.3,0.8,39.5,-2.2,-10,-10.4
7,0.2,39.3,-0.4,4.6,3.6
7.1,0.1,39.6,0.4,1.6,0.2
6.4,0.7,39.8,-2,1.2,29.2
7.8,-0.6,39.5,-1.8,-2.8,-44.6
3.9,-0.5,40.2,-3.4,-9.4,52.6
6.5,-1.1,40.2,2.8,0.2,-6.8
7.7,-0.9,41.4,-6.2,-23.6,-24
5,-1,42.8,-9.4,0.8,-9.4
6.2,-0.6,45.3,4.8,24.8,7.8
4.8,-0.7,46.7,1.8,-3,20.6
3.6,0.4,47.5,5.8,11.2,17.8
5.9,1.5,47.5,1.4,-7,-18
5.7,2.2,46.5,5.4,18.6,2.6
5.4,2.3,45.9,3.8,7.6,73.6
4.7,2.6,45.4,-1.2,-27.6,74
7.6,3.6,43.6,5.8,-18,47
10,4.3,42,-4.6,-9.2,-13.8
7,4.1,41.7,-1,-35.4,-109.4
11.4,2.8,41.5,18,25.2,51.6
-0.2,1.1,42.4,2,-11.4,133.2
8.9,-2.2,41.9,1.4,-14.8,-38
10.8,-1.9,42.2,2.8,-2.6,-42.8
4.4,1.2,41.9,-13.8,21,41.8
5.5,1.2,43.1,-5.2,7.4,4
8.5,0.6,43.2,0.4,-9.8,-25.8
8.2,2.1,42.1,3,-13.2,4
13.4,0.9,41.3,-8,-58.2,6.2
4.6,3.8,41.9,-0.8,-20,114.8
11,2.7,40.6,-5.2,-41.8,-99
5.3,2.7,41.3,-11.2,-24.6,76.6
6.8,3.6,40.9,18.8,22.4,-27.4
8.1,2,40.7,5.2,-28.8,58.8
9.9,3.2,40.4,-3.8,1.2,-22
6.4,0.5,40.4,-4.2,-3.6,-31.8
4.3,1.5,40.2,-5.2,1.4,38.2
5.3,-0.7,40.8,-1.8,5.2,15.8
5.1,-0.2,41.6,-2.8,-41,51.6
2.4,-1.8,41.9,-11.2,11,-44.2
3.6,0.8,42.3,-4.2,-4.8,39.6
3.2,0.5,41.6,2.6,9.2,13.6
3.8,0.4,42.7,-2.8,-6.6,-47.8
4.9,1.2,43.6,2.6,5.6,31.4
6,0.1,45.6,5.8,34.8,45.2
6,-0.5,48.7,9.2,-7.8,-81
-0.4,1,47.6,3.8,52.6,64.4
2.1,3.1,46.1,9.8,5.4,3.8
5,2.9,44.7,-2.6,-3.2,8.4
6.8,4.3,43.1,-1.2,-28.4,-32.4
2.1,5.6,43.1,2,25,47
8,5.2,39.8,-11.8,-18.4,-28.2
7.5,4.8,39.2,5.2,-14.8,35
8,1.1,38.9,1.2,7,-2.8
10.1,2.9,38.2,0.6,11.4,14.4
7,0.1,38.6,-2.2,19.6,-51.2
9.7,0.2,39,-13.4,-0.2,137.2
15.8,7.6,36.8,-22,27,-175.6
13.8,13.1,36.7,-15.6,65,-175.4
-3.9,15.4,38.5,2.2,-16.4,29.6
-2.7,12.8,37.8,8.4,26.8,-12.2
0.2,10.2,38.1,-6.2,2.2,-7.2
-1.3,9.5,39,2.4,30.6,-23.6
2,7.8,39.4,-4.6,8.8,-26.4
1.6,6.4,39.6,-4.6,-16.8,-1.6
3.5,6.6,39.3,-1,-28.2,27.6
6.3,4.4,39.5,-5,-53.4,-44
4.1,4.1,39.9,6.4,27.8,-8.6
5.5,3.7,39.7,-1.8,14.2,13.2
4.5,3,40.6,0.4,-11.6,10.2
5.3,2.6,40,2.8,-2,-12.8
7.5,1.9,39.7,7.4,11.6,26.4
5.8,0.9,39.7,-6,0.8,28.8
5.7,1.4,39.3,8.4,8,50
8.9,1.2,40.1,-0.8,15.8,-4
7,0.5,40.6,-6.6,-9.2,9.8
7.8,0.3,41.3,-2.2,-4.6,-5.6
8.9,1,42.5,0.2,5.2,-0.8
7.5,0.6,42.2,-2.4,0.4,-7
9.1,-0.2,41.9,2.2,2.2,-5.2
8.2,0.2,41.5,3.2,-3,13
8.4,0.6,41.1,0.6,-8,24.6
9.8,0.1,41.3,0.6,-5,27.6
8.6,2.8,41,-1,-11.6,21.8
8.1,2.1,41.6,1,7.2,2
9.2,1,42.2,4,-10.6,-13.2
5,0.6,42.3,10.2,29.4,45
8.9,0.8,42.2,5.2,10,-11.2
9,2.4,42.4,-2,-16.8,1.8
6.9,2.8,42.1,1.4,-7.8,-9.2
8.1,1.6,42.1,2.2,-3.2,19.4
10,2.1,41.5,2,4.2,-15.2
9.2,2.5,41.8,1.2,0,20.6
12.5,2.8,42.2,-1,1.8,-41.2
8.9,2.3,41.6,11,33,-5.2
5.8,3.2,41.1,-0.6,33.8,48.2
4.9,3,40.8,3,-24.8,4.2
3.5,2.9,40.2,0.8,-20.4,-5.8
3.6,3.2,40.7,0.8,31.4,10.2
7.5,2.1,40.1,-0.4,-7.4,-26.2
5.2,2.7,40.5,-0.6,-11,36.2
3.3,1.7,41.1,10.6,-14.8,51.4
8.7,1.4,41,5.8,9.4,12.2
7.3,2.3,41.1,0.2,20.2,-21.6
7.4,2.4,41.5,-0.6,17.6,-6.2
7.8,2.9,41.1,1.2,-8.6,3.6
6.7,2.4,41.8,-0.4,1.2,-10.2
7.5,2,41.9,1.6,-40.4,-52.6
4.9,2,42.9,-2,-54.2,4.4
3.8,0.7,43.6,0.8,-19.2,18.8
5.5,2.1,44.3,8.6,-23.2,-7.4
3.6,3.8,43.4,6.2,-2.4,54.6
4.1,4.1,42.1,0.6,4.8,12.4
14.1,5.5,40.7,-6.8,-55.2,-66.8
-3.3,8.6,40.2,-8.4,-8.6,90.4
2.2,6.4,38.2,14.8,1.2,37.2
2.4,8.4,36.6,0.6,-7.8,-15.2
4.9,6,33.4,-3.2,-20,39
-1.1,7.4,33.1,10,-14.6,90.8
3.4,6.6,30.1,9,22.4,-20.6
3.7,8.7,26.6,5,5.6,-9.2
0.7,8.6,21.7,-0.2,0.6,2.4
2,9.1,18.2,13.4,17.4,28.4
6.2,8,13.8,7.2,-16.8,8.2
3.4,8.9,9.7,11,-1.8,27
2.9,7.8,5.5,3,7.4,22.8
13,10.5,0.3,20.2,-31.4,62.2
14,9.5,356.6,12.4,39.4,-26.2
16.3,11.9,351.5,4.4,-15,83.8
13.3,9.7,348.8,6.8,7.6,33.4
12.3,8,345.5,1.4,-6.8,21.2
10.1,5.6,344.7,0,-5.8,10.8
10,3.6,341.9,2,-7.2,5
10.8,3.7,340.7,-1.8,-7,-4.4
9.4,1.4,339.6,-6.6,-39.6,-20.8
7.4,-0.3,339.8,7.2,6.4,12.6
3.9,-3.1,340.4,-9.2,-12.8,-61
5.5,-1.1,339.8,4,-16,37.8
3.7,-1.3,339.3,1.4,11.2,1.2
6.9,-0.2,338.8,-1.8,-3,-18.2
4.9,-0.6,338.2,-2.8,-2.2,-2.2
5.1,-0.6,337.9,-2.2,9.8,-0.8
5.3,-1.1,337.9,-0.2,-16.2,5.4
4.3,-2,337.6,1,-43.8,6.8
0.6,-0.6,336.5,5.8,2.8,4.8
5,-0.4,336.5,6.2,-6,-23.8
8.9,-0.4,337.2,1.2,2.6,1.4
8.7,-1.6,337.8,-10.2,-80.4,126
9.1,0.3,337.8,-10.4,-3.4,-51
5.8,-1.2,336.6,-0.4,1.2,19
2.7,-1.9,337.3,1.2,21.4,26.2
8.8,0.2,338.2,-12.4,-11,-94
5.4,-1.8,338,-6.4,-39.8,-7.6
2.9,-1.7,338,-5.4,-11,57.8
3.8,-2.8,337.9,10,-5,13.8
9.4,-0.2,338.2,-12.6,-90,-33.2
6.7,-1.2,337.7,3,1.6,-92.2
2.9,-1.8,338.1,-4,8.4,-5.6
-5.7,-2.8,338.7,-2,-45.4,31.2
-6.6,3.2,339.5,1.2,9.6,137.2
-2.4,1.2,339.4,-0.8,23.8,-111.4
-4.4,2.6,340.5,4.4,2.4,77.6
-4.8,1.8,340.8,2.8,-13.6,95.2
-3.9,3.1,341.3,-2,-14.4,137.2
-6.4,4,341.5,4.8,-21.6,75.6
1.5,3.7,340.5,-15.6,3.6,-122.6
-8.4,2.6,340.5,6.2,1.6,83.2
-5.2,3.5,339.9,6.4,15.4,-29.8
-2.1,4.8,339.2,3.8,-4.2,-6.2
-10.4,5.1,339.3,-8,-9.8,128.2
0,2.4,338.3,2.4,39.6,-124.8
-11.1,4.7,339.1,3.6,-11.4,118.2
-0.6,3.8,337.1,5.8,-5.4,-105
-3.9,1.3,336.9,1.2,-16.8,91
0.5,1.7,336.4,2,5.6,-2
-6.4,2.4,337.5,3.6,-6.2,45.4
-6.2,1.8,337.4,-0.6,-13.8,38.6
-1.6,2,337.9,-10.8,19.8,-73.4
-4,-0.1,338.3,-8.8,24.2,-83.8
-8.9,-1.2,340.3,-5.4,2.6,4
-4.4,-1.3,342.8,-7.8,3.8,-8.8
-4.8,-1,343.9,8,-0.4,9.6
-4.4,2.1,344.2,1.6,-4.8,42.8
-1,1.7,345,1,-7.4,58.2
-0.3,2.7,344.2,4.4,-3.4,8.6
-4.6,2,344.3,-0.2,13.4,-19.6
-1.7,2.9,342.9,-5.8,-40.8,17.4
0.5,3.8,342.3,-2.4,7.4,-46.2
-0.5,3.7,340.3,6,21.4,26.8
0.5,3.8,338.4,2.8,9,-41.2
-0.6,4.1,334.9,-0.6,18.4,14.8
3.7,3.5,333.3,-3,9.4,-23.6
4.6,2,333.1,-9.6,13.8,53.8
-0.1,0.9,333.9,11,0.2,61
5.4,0.4,334.3,-3,49.8,-53.2
-1.4,1.4,333.9,4.4,0.4,-6.8
4,1.6,334,-8.8,9.2,-65.2
3.3,-0.8,334.4,-4.8,0.4,29.2
1,-0.5,334.9,-1,27.4,37.2
2.8,-1.8,335.9,-0.2,17.4,-36
1.7,-1.8,337.2,6.4,0.4,50.4
7.1,-1,338.7,-4.4,26,-23
6.2,-1.1,339.4,-0.8,-11.4,44.8
5.9,-0.6,340.3,1.6,26.8,-15.8
8,0.5,340.7,0.2,27.2,4
7.3,1.6,341.2,0.8,3.8,-17.8
8.1,1.9,340.6,-2,-18.2,-56.6
7.4,1.5,340.6,-9.2,-2.4,-21.4
10.7,3.4,340.7,-1.6,-7,-49
10.8,3.2,340.3,1.2,-13.4,-12.4
8.4,4.4,340.2,5.4,-10,39.6
6.7,4.4,338.7,1.6,-1,-18.4
6.6,5.1,336.5,-2,-2.6,-35.8
6.6,3.7,335.4,1.2,-1.4,13.6
5.2,2.6,334.7,1.4,2,5.2
7.3,1,334.3,-3.2,-0.8,-1.2
7.2,-2.1,335.1,5.4,-25.6,40
7.8,-1.1,335.7,-4,-31,-12.8
4.7,-1.9,335.5,1.4,-1,4
6.2,-1.4,336.8,0.2,-32.4,-24.4
7.3,-1.5,337.1,-4,16.2,11
3.2,-1.2,338.2,0.6,-1.4,2
8.7,0.6,339.4,3.8,-16.6,37.2
4.8,0.6,339.8,-3.6,-3,19.2
4.5,1.3,339.2,4.2,22.6,-40.6
5.9,1.3,338.9,1.4,6.4,-8.8
8.6,2.9,338,-2.8,14.6,11.8
8.9,3.9,337.9,2.6,31.4,20.4
5.3,3.3,338.1,4.6,-3.2,-11.4
7.5,5.9,336.4,0.6,0.4,-29
8.3,3.7,334.8,1.2,-7.8,-36.2
6.2,2.9,334,-0.4,21.6,-44.2
-1.1,2.2,331.6,1,3.2,64.2
4.8,3,330.5,-0.4,19.2,-52.6
3.1,0.9,330.7,-1.6,18.6,19.6
0,-1.2,330.7,-7.2,-13,26.8
1.1,-2,331.3,-5.2,-18.6,15.4
0.6,-1.5,332.5,-2.4,12.2,-32.2
0.6,-1.4,333.3,0,8.8,-2.2
-1.5,-2.3,335.7,-3,8.6,-27.6
3.4,-2.3,338.1,4.2,7.4,-23.6
2.4,-0.4,339,-2.2,14,5.4
5.5,-0.4,339.3,-1,-16.4,-5.8
4.6,-0.3,339.5,1.4,-15.8,4.4
2.5,-0.2,339.9,1.6,13.8,32.2
7.8,0.1,341,2.2,-6.6,-24.2
8.6,0.2,342.8,0.4,-7.2,14.2
6.8,-0.1,345.1,-2.2,3.6,-5
7.7,1.1,346.5,4,1.8,-8.2
8.6,2,347.6,3.8,-17,-7.6
6.4,4.7,346.7,5,55.6,-20.4
1.6,7.3,343.8,-0.2,-13.4,48.8
0.9,7.4,342.5,1,12,19.8
5.4,8.1,339.2,-7,-7.2,-26.2
3.6,6.5,338.9,3.6,5,-13.8
7.3,5.3,337.7,-0.8,-5.2,-18.4
6.6,4,337.2,9.2,16,26.2
9.2,3,337.2,0.8,-26.8,24
7.9,2.4,336.8,-0.2,1.2,9
9.4,2.4,336,3.2,-14,30
7.7,0.8,335.5,2.6,3.6,24.6
9.8,3.2,335.1,-4.8,0.2,-7.8
10.5,1.4,335.1,-3,-2.8,16.4
9.8,0.4,335.8,-0.6,12.6,-10.4
7.9,-0.7,336.4,0.2,-3.4,-12
9,-0.6,336.7,1,7.4,-11.8
9.2,-1.7,338.2,0.2,-4.6,-1.4
9.7,-1.9,339.5,0.2,-9.2,-12.4
10.2,-0.7,340,1.6,2.6,-9.6
6.7,-0.5,340,-3.6,-0.8,9.8
9.4,1,339.8,-2.2,11.6,-1.6
9.8,1.1,339.6,1.2,3.4,7.6
11.5,2,339.5,1.4,-35.8,-23.4
8.4,2.2,339.1,-0.2,-0.2,22.4
8.7,2.3,338.7,1,7.8,25
8.8,2.4,338.7,-5.6,-9,-2.2
8,1.1,339,2,4,-2.8
8.1,2.1,339.2,-0.8,6.4,-13.2
7.2,1.4,340.5,-0.2,3.8,19
7,1.2,340.7,3.8,9.4,15.4
9.1,2.9,339.5,2.8,-18.2,-40.4
5.7,3.2,338.9,-1.4,9.4,-6.6
8.7,3.9,337.9,-3.6,-9.4,-20.4
6.7,3.5,337.5,1.6,1.4,18.6
6.7,3.4,337.3,-1,-24.2,7
4.9,2.2,337.5,2.8,-2,14.2
5.8,2.5,337.2,-1,5.4,-2.4
7.1,2.3,337.2,5,15,-28.4
4.7,0.7,337,3.6,5,-19.4
8.6,0.8,336.6,-4.8,8.4,-39.8
7.9,1.6,336.4,-2.8,-2.2,-3
7.4,0,335.7,0.6,-11.8,-36.4
6.4,0.3,336.1,-1,5.2,4.4
9.7,-0.3,336.8,-3.8,-2.6,-27.8
7.6,0,337.6,-2.4,6.4,10.8
9.5,0.1,337.4,2.6,6,-27.8
6.3,-0.8,337.3,-4,-23,53
9.8,0.9,337.9,-2.8,-31.6,-21
9.7,0.2,338,-1.4,0.6,20.4
8.1,-0.7,338.9,2,-8.4,37
9.6,-0.2,340.3,-2.2,-3.6,-17
9.6,0.8,342.4,-1.2,0.4,-49
8.2,-0.4,343,-2.8,17.2,-13.8
6.9,0.6,344.2,0.2,2.2,21.6
7.1,0.1,344.1,1.4,12.4,-41.4
8.4,1.2,343.7,0.4,4,20.6
7.4,2.7,343.3,-2.4,-11.6,20.6
8.1,1.3,342.1,-1.4,2,5.4
8.8,1.3,342.1,-1.6,-13.2,-7.8
6.4,1.2,343.5,-0.8,19.4,4.8
7.2,-0.6,344.1,-4.8,-1.6,2.8
5.5,-1.1,345.9,-7.4,4.6,26.6
5.8,-1.9,347.4,5.6,-6,73.6
3.9,-1.5,349.3,2.6,-8.8,-22.8
4.3,-1.4,350.7,9,27.4,4.2
6.6,0.5,351.3,1.8,17,-19.6
6.9,1,352.2,-3.6,36.2,-10.4
8.3,3.3,353.3,-6.6,-38.6,-27.6
5.7,1.9,354.4,11.2,34.4,-31
-0.4,3.5,353.9,6.2,-1,100.6
8.1,6.8,351.4,1,-14.6,-74.2
0.6,6.2,350.5,7.6,1.6,41.8
3.6,5.5,347.8,-6.2,38.2,-22.6
-0.6,4,347.2,4.4,15.2,2.8
-1,2.1,347,-5.8,34.2,-153.8
2.1,4.6,346,-3,-5,39.2
1.4,6.1,345.8,2,13,56.6
3.3,4.8,342.1,4.2,34.8,13.2
3.1,3.6,338.8,1,0.4,57.2
8.1,2.8,334.5,-19.8,-25.4,-76.4
6.4,-0.4,334.2,2,32,22
3.5,-3.4,340.3,8.8,2.8,-5.2
4.7,-5.7,343.8,-8.4,-16.8,-19.8
-1.3,-5.9,344,2.2,34.4,10.6
4.1,-6.6,347.5,-23.8,-132.4,113.6
5.1,8.3,351.9,-11.6,23.4,-158.4
2,7.3,353.6,9.2,90.4,-31.8
1.2,11.8,351.3,14.8,-18.2,22.8
5.6,16.2,347.2,4.4,-0.2,-49.8
0.5,14.7,347,18,2.2,37
1.8,13.9,342.7,4.6,-6,-21.4
1.2,12.4,339,-1,12.4,-12.2
3,10.9,335.5,5.6,-3,16.6
6.8,8,331.9,-2.2,26,-33.6
12.3,6.2,330,-6.2,-30.8,73
5.4,3.2,329.1,-3.2,-32.2,-22.6
9.6,2.1,328.3,-5.4,-18.2,-30.2
9.3,0.9,329.3,-7.4,10.8,-19
9,-0.9,330.2,-2.4,14.8,-0.8
9.1,0.8,329.3,-7.8,2,-9.6
9.1,-0.1,328.6,4,23.8,0
8.9,-0.1,329.1,-2.4,11.8,-21.6
10.6,-2.1,330,-5.4,-26,5
9.5,-1.5,331.6,9.4,8.2,-77.8
9.9,-1.6,331.2,4.4,-16,-9
8,-5.1,330,1.2,-5,59.6
8.9,-4,331,1,-9,7
10,-1.9,331.5,-6.6,1.4,-3.8
10.4,-2,332.7,0.8,-5,5.8
10.4,-1.7,333.6,0.4,0.8,-5
10.1,-2.6,334.4,-1,16.6,-12
11.8,-2.3,334.8,-2.2,-26,-14
10.2,-3.9,335.8,-7.6,-20,-45.8
10.2,-2.1,336.8,3.8,-29.8,7.8
8.2,-4.9,338.1,0,3.6,33
8.8,-2.8,339.2,-0.2,8.2,23.2
8.7,-1.4,339,-0.8,2.6,34.2
8.1,-1.1,339.4,2,1.8,20.4
7.2,-1.2,340.1,2.8,-3,15.8
7.1,0.5,339.6,1.6,11.6,-17.4
8.8,0.5,339.9,-2.8,-3.2,4.8
9.4,0.6,339.9,-7.2,-36.2,-12.8
8.2,2,339.6,7.6,1.8,41.6
6.1,2.8,340.5,3.2,36.6,-24
10.7,2.8,339.3,0,-33.6,-31.8
8.2,3.3,338.3,-1.8,9,-9.8
9.4,3,337.6,-0.8,-10.8,16.6
7,2.1,336.5,-3.2,-0.6,19
10.1,1.9,335.8,0.2,11.2,-35.4
9.4,1.2,335.9,-1.4,3.2,5.2
10.1,1.1,336.2,6.2,18.4,-28
16.5,-0.6,336.3,-0.2,12.4,-16.4
12.2,-1.3,336.1,-4.6,-17.4,30.4
15.2,-0.5,335.6,-6.4,-15.6,-27.2
14.4,-1.3,336.9,0.6,9,-9.4
13.5,-2.7,337.3,-2.2,-21.6,-30.2
15,-2.2,337.7,-3,-1,-19.2
15.2,-1.9,338.2,4.2,-1,37.8
11.7,-1.6,338.4,-5.2,-25,-18.4
11,-0.5,339.3,-4.2,-8.4,-8
11.4,-1,339.2,-0.4,-36.8,-0.8
9.9,-0.5,338.9,-0.8,6.4,-21.8
10.6,0.8,339.7,0,4.8,10.4
8.5,0.5,340.2,0.8,0.8,10.4
7.4,-0.5,340.4,-2.6,-11.6,-62
6.2,2.2,340.1,-5.4,-31.4,28.8
4.5,2.2,340.1,-3,-4,-45
3.3,2.5,340.7,0,4.8,-6.8
5.8,3.9,339.3,2.4,6,-31.8
6.2,2.4,337.4,2,-33,21
7.2,1.5,335,-6.2,-50.8,-40.4
6.2,-0.1,334.4,3.6,-5,-22.8
4.1,-2.8,332.9,-13.2,-24.4,-68.2
1.7,-3.3,336.4,-5,4.8,16.6
6.2,-6,341.2,-5.6,-48,-55.8
0.1,-6.4,345.3,1.6,-29.4,54.8
4.5,-5.8,349.1,-9.6,-19.6,29.4
4.7,-7.3,350.1,9.2,64.2,48.2
11,-3.5,350.2,11.6,15.8,70
9.3,1.7,349,-0.6,-3,-0.2
10.1,1,347.8,3.8,2.6,-19
11.7,1.9,346.6,-6,-58,10.2
9.1,1.6,345.8,6.6,13.2,-21.2
7.1,2.7,345.2,-2,2.2,18
7.3,3.2,345.5,-1.6,-1.4,-7.2
10.2,2.6,345.3,-6.4,9.8,-62.4
6.5,2.3,344.2,9.4,5,65.8
8.3,2.9,344.1,0.2,9,-25.8
8.8,4.2,343.2,-0.2,-15.2,-15
5.8,2.6,342.7,0,8.4,13.4
9,2.5,342.3,1.2,9.6,-20
7,2.5,342.4,0.2,3.6,24.2
7.1,2.5,342.5,2.4,46.8,-9.6
5.1,1.5,342.4,5.6,11.2,65.2
6.6,1.4,342.2,2.6,-8.4,42.8
11.2,2.4,342,3,10,-52.6
6.9,2.3,342.5,7.2,-4.6,19
10.5,0,342.3,4,-27.8,-41.6
10,-0.5,343.1,-1.4,8,-19.4
9.5,-0.5,343.4,-1,3.8,10.4
8.1,-0.7,343.6,-2.6,5.8,-6.8
8.8,-0.1,343.8,-3.8,2.8,-4.8
9.6,0.5,343.6,-1,-1.4,5.4
9.6,-0.5,344.3,-3.4,-11.4,-73.4
6.6,-0.3,344.1,11.6,-6,82
5.9,0.9,343.2,3.2,24.4,-72
10.3,3,343.1,-3.2,-33,47.4
4.8,1.1,343.8,6.2,8,26
7.7,1,343.7,5.6,-10.2,-13
8.1,2.7,343,2.6,8.8,9.4
9,2.5,341.9,0.4,-10.8,22.2
11.2,4,340.7,-8.8,-3.8,-49.4
8.8,3.3,340.2,1.6,-19.4,5.6
13.7,3.9,339.2,-7,-26.4,-70.8
10.4,1.9,339,-0.4,-8.8,-19
8.6,1.5,339.1,0,-2.8,5.2
10.7,0.7,339.5,5.4,-6.2,12.4
9.2,3.2,339.4,3.6,22.4,50.2
10.8,2.1,338.4,6.8,-13.8,65
15.4,2.4,337,0.4,-15,-13.6
11.4,1.9,336.3,2.8,1.4,53
12.7,1.6,335.9,-1.8,-9.6,35
12.3,2,335.1,-5.8,6,-4.4
11.7,1.6,335.2,2.6,-13.6,1.8
9.2,1,335.2,-1.2,-4.2,36.8
11.1,0,335.4,-2.4,-7.6,13.6
11.6,-0.4,335.8,-8.6,15,-4
9.7,0.1,336.8,4.4,8.6,-1.4
14.3,-0.7,337.9,3.4,-13,-18.6
11,-0.8,338.6,2,18.4,6.8
12,-0.9,339.5,-3.2,-10.8,-13
10.8,-0.2,339.6,-4,20.8,-43.8
12.8,-0.5,339.8,1,2.2,-3.6
10.4,1.1,340.8,-7.6,-21,-4.6
10.9,1.9,341.2,-6.4,-14.6,10.4
13,1.5,341.7,7,22.4,16.4
8.5,1.5,342.1,1.2,-5.8,-15.6
9.4,2.3,342.5,-2.6,-3.6,-21
9.6,3.1,342.9,-3.8,13.2,-7.8
8.3,1,342.6,-9.4,-3.8,-10.2
10.9,3.1,341.6,-1.8,23.8,-50.4
9.5,2.7,341.7,-1.2,-10.6,-62.8
9.7,3.5,341,0.6,-3.6,72
8.6,3.1,339,0,22.6,33.4
12.9,2.9,338.4,1.8,-25,53.2
6.2,1,338.1,-5.6,10.2,-41.6
9.7,1.3,338.5,8,5.8,60.8
5.7,-3.7,340,7.2,-6.2,4
11.4,-1.2,340.4,5,23.4,112.6
4.2,-1.6,342,1.6,-25.8,-26.8
0.2,-1.9,340.8,13.6,6,62.2
5.3,-1.8,339.1,-10.6,-35.2,-71.6
2.1,-1.2,338.6,-12.8,20.6,-1.2
3.8,1.7,340.9,5.4,23.8,49.2
-0.4,0.1,344.9,5,-6.6,-0.4
2.9,0,349.5,-1.6,-8.6,-7
3.3,1.1,350.4,-4,-7.2,1.8
3.3,2.2,351.1,5.8,18,-0.6
4.8,2.4,349.2,-1.6,-16,-3.6
4.5,2.8,347.3,2.4,10.8,2.4
5.2,3,347.4,3,9.4,-3.6
6.3,3.4,346.9,3.6,-5.2,-31.6
3.3,2.4,346.4,6.8,-26.6,26.8
4.2,1.1,346.2,2,-1.6,14.2
3.8,1.1,346.2,-3.8,-22.4,-35.2
0.5,2.2,346.8,5,42.2,36.4
3.7,1.5,345.9,0.8,2.6,-9.2
4.6,2,345.1,-0.4,-1.4,12.4
2,1.1,345.1,3.4,-13.2,20
8.2,0.6,343.7,-2.4,-1.6,31.6
12.5,1.1,343.1,1,4.6,10.8
11.2,1.4,343.1,-2.2,13.8,-24.2
11,-0.5,343.2,2,40.8,5.4
10.7,-0.9,344.5,-6.2,-19.8,55.6
9.5,-0.6,345.2,3.6,0.8,27.8
7.7,0.5,344.7,1,2.4,6.8
8,0.7,344.6,2.2,21.2,23
9.2,1.5,343.8,-2.2,-17.4,34.4
15.8,2.7,341.4,-3,-4.8,-76.2
10,1.9,340.9,4.8,16.2,-20.6
7.4,0,340.4,-5.2,-3.4,-27.8
7.4,-0.2,341.6,-3.6,-4.2,46
8.2,-2.3,342.1,2.6,16,-49.2
11.9,-2.5,342.8,-0.2,-4.8,-9.6
8.4,-1.8,342.5,0.6,-4,7.4
8.1,-1.8,343,-4.4,-10.8,-22.8
6,-2.9,344.4,-0.2,-14.4,28.6
5.2,-3.1,345.8,9,21.6,7.4
10,1.6,346.2,-3.8,36.2,-35
7.4,1.3,345.7,-5,-35.2,25.4
7.8,2.6,345.1,-1,-4,-12.6
11.9,3.2,344,-0.4,24,-6.8
9.8,2.1,343.6,5,6.2,-12
11.4,0.9,342.9,8.8,11.8,2.6
7.4,1.9,342.7,5,18.6,-22.6
8.5,-0.6,341.5,5.2,-4.2,19
10.9,0.1,340.8,-0.8,4.4,-34.4
10.9,-1.6,342.7,7,19,-15.8
12.7,-0.5,343.8,3.2,-6,-10.4
16.2,0.4,345.2,-4.4,3,-37.4
12.1,0,346.4,-1.2,4,3.4
11.7,1,347.3,-1.8,-5.6,-22.4
12.3,0.7,348.1,2.6,3.2,15.2
11.4,1.8,347.9,-2.6,-5.4,4
8.3,0.2,347.4,3,8.6,-19.6
10.6,0.7,347.3,-1.2,-0.8,-11.4
9.3,1.8,346,-0.6,3.2,-44.4
11.3,1.9,346,-2.4,6.8,-57.8
6.2,2.1,346.6,3.4,-25.6,94.6
7.2,1,345.4,2.4,-2.4,23.6
6.5,0.7,345.5,3.6,7.4,33.6
8.8,0.6,345.3,-4.4,-13.6,-7.6
8.5,0.9,345.2,-2,19.4,-13.4
6.3,0.3,345.3,5.2,7.6,-4.2
6.8,1.8,344.7,-1.6,3.4,15
6.9,1.4,343.6,0,6.4,-26.8
8.8,1.7,343,0.6,14.8,-1.4
7,2,341.8,-0.6,3.8,29.6
10,1.4,341,-6.4,-7.4,-19.6
4,0,340.9,-5.8,-2.4,-10.4
4.8,0.1,340.9,0.4,11.8,-4.4
6.8,-0.3,342.1,-4.8,4.6,-0.2
8,-0.7,343.4,-3.6,-0.6,-7
8.4,-0.9,345,-2.4,-14.6,34.2
9.4,0,347.6,-1.6,-14.4,2.6
11,0.5,348.5,0,-42,48.4
6.2,1.1,349.8,-1.2,-10.8,69.4
12.3,0.7,350.3,3,-38.2,-53
1.6,1.8,350,4.6,20.8,34
3.5,3.6,349.3,4.4,42.2,-39.8
-0.7,3.3,348.2,-0.6,4,24.6
4.5,3.9,346.1,0.6,-2.4,-17
2.7,3.9,345.1,0.8,-6.4,13.6
0,2.9,344.6,1.4,-2.8,-40.8
3.3,2,343.8,6.4,25,22
2.9,0.7,344.1,0.8,-4,-36.8
-0.3,2.8,343.9,-4.8,15.8,1.2
1.3,0.4,343.7,5.8,-7.6,38.2
1.4,0.2,344,-1.8,-29.2,60.4
6.1,1.3,343.6,-0.2,-3.2,32.8
3.5,1,343.8,-0.6,-5.2,16
3.3,-0.4,344.1,2.4,-16,0.4
3.8,0.6,344,1.2,18,-15.2
7.8,1.7,343.1,-8.6,2.2,-18.8
7,-0.3,342.8,-3,-50,54.2
5.7,0.2,343.1,0.8,-15.8,47.2
8.4,-0.2,343.7,-4.4,-15.6,14.2
7.3,1.6,343.8,-1.4,-41.6,20
5.6,1.1,344.7,2,-5.4,27.4
6.9,0.8,346.6,1.2,-6.8,-5.4
5,-0.8,346.4,15.8,15.2,18.8
5.5,-0.3,346.2,8.6,11.8,-7.4
9.5,0.7,346.2,3.6,14.2,-44
4.8,0.3,345.7,7.6,18.4,37.2
6.4,1.3,345.6,0.8,11.4,-15.4
6.3,1.3,345.4,-1.6,1.2,-15.2
6.1,1.6,345.8,0.4,-3.6,-2.8
5.6,0.9,346.1,3.4,1.4,-3
6.4,2.4,345.5,-2.6,5.6,4
9.5,2.3,345.4,0.2,-1,-15.2
8,0.9,344.9,-9.2,-29.4,-8.2
7.2,0.9,345,-2,-13.8,-20.6
5.9,1.4,346.2,-2.4,8.2,2.6
7.2,1.7,346,-3.4,-5.6,18
6.1,0.6,346,5.4,2.6,37
7.3,2.2,345.4,2.4,-7.8,-42.8
6.2,3.9,344.8,0.8,7.2,23.4
7.1,4,344.2,-0.8,10,-23.6
6.9,3,343.7,0.6,20.8,-50.4
4.7,2.7,343.3,5.4,-60.2,57.6
5.5,3.4,343.1,6.8,-2.4,1.4
3.7,2.8,343.1,-1.2,3.8,-7.6
5.2,2,343,1.2,-11.4,-4
7.4,2,343.1,0.6,10.6,3.6
6.6,-0.6,342,3.4,-6,44.4
7.1,-0.7,342.5,-3.6,-19.4,-29.8
7,-2.2,342.6,-4,-7,-27.8
4.3,-1,342.9,8.2,14.8,62.6
8.5,-0.9,343.6,1.4,-3.6,-23.8
7.9,-0.9,343.8,0.2,4.8,17.2
10.8,-0.3,344.8,-0.8,15.4,-19.6
8.6,-1.8,344.9,4.6,13.2,27.2
8.9,-1.3,344.8,-1,27.8,-17.4
15,-0.4,345.2,-0.6,-7.4,34
5.1,-1.2,344,-8.8,-27,-10.2
10.4,0,344.4,1.4,20.6,-36.2
8.3,-1.1,343.9,0.2,-7,4.4
6.4,-1.3,343,-2,4.6,5
7.9,-1.3,343.3,-3,-8.2,-2.8
7,-2.4,344,-8.4,-24.8,1
10,-0.8,345.7,-1,-13.8,-22.6
6.8,-2.1,346.6,-11,-55.8,-10
5.1,-1.1,348.6,-10.2,-11,-32.4
3.5,-0.3,349.2,-0.4,3.4,19.2
2.8,-0.5,349.3,-4.8,-4.6,-30
3.2,-0.9,349.8,-2.4,-11.4,3.6
4.2,1.1,349.6,-7,29,-55.2
3.7,2.2,349.1,-6.2,10.6,-91
6,1.3,348.5,-11.4,-23.4,-59.2
5.7,-1.2,347.1,6.2,36.6,5.8
8.6,-0.1,350.2,0.8,10.6,-84.2
5.2,2.5,350.3,8.4,2.8,-0.4
1.8,0.7,349.8,-3.8,-28,-0.8
-3.2,2,348.8,-10,-23.2,137.2
17.6,0.7,348.2,13.4,-16.2,71
11.3,2,347,11.6,-25.2,-0.4
4.6,3.5,345.3,14.2,28,-7.2
4.6,0.3,345,-1,-32.6,-19
6.2,0,344.4,0.6,19.4,-16.2
5.2,0.8,343.5,-1,15,-15
5.7,-1.5,342.2,-2.4,14.6,18.8
7,-0.3,341.3,-2.6,17.4,-13.4
2.8,-2.6,340.7,-8.2,-24,4.8
6.5,-0.7,340.2,-3,-30.4,-11.8
8.1,-1.9,340.2,-5.8,0,22.8
6.1,-1.1,339.8,-3.6,17.4,-41.8
6.1,-1.8,338,-4.8,-7.6,2.6
3.2,-2.6,336.6,-1.2,3.6,33.6
5.2,-1,337.7,-8.6,-6.8,-54.4
1.2,-4.1,338.9,1.6,49.8,17.8
2.7,-3.1,341,-2.8,11.8,32.2
2.9,-3.9,343.1,-1.2,3.6,35.8
4.2,-3.9,344.3,-1,-17.4,53.8
6,-1.8,346.3,-9.2,6,-45.6
5,-2.3,346.8,-3,19.8,-0.4
9.7,-0.4,347.3,-3.6,-11.2,-12.4
9,0.8,348.4,4.2,-13.8,55.6
6.1,0.3,348.2,4.2,32.2,-3.8
7.1,0.2,347.3,12.6,-20.2,9.2
1.6,1.8,347.3,5.2,15.2,45.2
4.9,2.5,345.9,0.4,9.2,-22.6
4.3,2.6,345.5,-2.8,-6.2,-5.6
0.1,1.9,345.7,-1.6,-16.8,27
3.8,2.7,345.4,0.8,2,-14.6
1.1,2.6,345,1.8,-1.2,26.8
1.6,0.8,343.9,-4.8,-18.4,15.2
2.5,2.4,343.3,-0.2,0.2,33.8
3.6,1.4,343.3,2.8,1.6,11.6
4.5,1.5,343.9,-1.4,12.2,-20.4
4.7,1.1,343.4,-0.8,-10.8,15
5,0.8,343.3,-1.2,-0.6,-19
7.4,-0.5,344.3,7,-3.6,-5.6
6,1.2,343.3,-3.6,39.4,9.6
6.5,1.3,343.5,1.6,-16.6,2.8
4.7,0.9,344.4,-2.2,-5.6,5.2
5.9,0.4,344.4,2,-4.8,15.2
8.6,1.2,344,6,5.2,3.4
8.6,1.6,343.2,1.6,3.6,23
5.9,1.3,343.2,-0.6,-4.6,-1.4
9.2,1.3,344,-1,-13.6,14.8
5.7,0.2,344.7,-0.8,-24.2,29.2
8.1,1,344.5,3,2.6,-1
8.8,0.9,344.2,-6.2,-25.8,34.2
8,1,344.7,-2.4,-9.4,-6.2
6.3,0.5,345.5,-0.4,-15,45
8.2,1.1,346.4,-0.4,-11.2,-15.2
9.2,1.2,346.1,0.6,1,-20.2
9.9,1.4,345.7,-2.2,-4,-30.2
8.5,1.2,345.7,3.2,-4.2,25.6
9.7,2,345,-4,-8,-20.4
7.7,3.3,345.2,-2,-11.8,17.6
6.9,2.7,345.2,4.8,-8.2,-10.4
6.3,2.5,344.5,-2.2,-15,25.8
5.7,2,344.9,-2.2,14.2,6.8
7.4,1.8,344.7,-0.6,-2.8,29
9.6,1.9,344,-0.4,-17,-4.8
9.3,1.5,344.1,4.2,7.6,-3.6
7.8,0.7,344.1,3.6,20.6,16.8
7.9,0.4,344.1,-2.4,-22.6,64
8.7,0.2,344.8,13.4,18.8,-28.2
6.9,-0.8,344.9,0.6,-2,42.4
6.5,0.3,345,2.4,0.2,38.4
10.1,0.4,345.1,0.8,25.2,-25.6
8.9,0,344.8,-1,-6.6,20
8,0.9,345.1,-2.2,-17,27.2
8.4,0.4,345.8,-0.4,15.8,-35
6.3,0.5,345.8,-1,1.6,-1.2
4.6,-0.5,345.9,3.4,1.8,16.6
8.6,1,346.2,-2.4,-3.6,-40.8
7.8,2.6,345.7,-2,6.4,-19.8
6.9,1.2,345.8,2.4,14.2,2
7.9,1.6,345.6,0.6,2.4,-4.2
7.6,1.6,345.4,-1.8,1.8,18
9.9,1.4,345.2,-0.4,-22.4,16.6
7.4,0.4,345.8,5.4,2.2,33.4
9.1,1,345.8,1,4,-9.8
9.1,0.5,346.2,6.8,2,-2.4
9.5,0,346.9,0.6,2,13.6
8.2,-0.1,346.4,-3.6,-5.2,-3
8.9,0.2,346.1,-0.6,8.6,-6.4
10.4,-0.8,347,-2.6,8.6,-22.2
8.8,-1.8,347.7,-5,-8.6,-26
6.2,-0.4,350,-1.8,1,32.2
9.9,-0.6,352.7,-3.8,-1.6,-41.8
7.1,-1,354.1,6,14.4,62.8
0.8,0.1,354,1.2,-0.8,73.8
5.2,0.2,352.3,13.2,-4.8,15.2
3.2,-0.3,351.6,9.4,-34.6,60.4
7.7,-0.1,352.8,-2.8,-12.4,-13.8
3.5,-0.6,353.5,1.2,-12,35.2
4.4,1,354.1,0.4,-10,-16.6
6.9,1.4,355,2,-0.2,-3
4.5,1.8,356.5,-0.6,6.4,26
5.5,-0.4,356.1,-1,17.6,-80.6
8.9,2.2,354.5,0.8,-27,-46.6
4.3,2.7,354.1,0.4,0.6,26.8
9.4,3.4,353.1,-1.4,5.2,-18.8
7.7,3.2,351.5,0.2,-4,8.6
7.3,3.7,350.3,0.4,1.8,-0.6
7.7,4.2,349.5,-1.2,6.2,-11.6
6.7,4.2,349,1,21.8,-17
7.5,4.9,348.8,-2.6,-8.8,-9
6.4,4.9,348.4,0.4,-23.6,-4.4
5,4.6,347.1,7.2,9.8,15.2
6.7,5.1,344.4,4,0.4,7
3.5,5.6,341.7,0.2,1.6,1
4.1,5.7,338.3,3.2,-5.6,-8
4.5,5,334.1,1.6,-1.8,17
5.5,3.8,329.8,2.6,-2.4,7.4
8.4,4.1,328,-1.2,-5,-11.8
7.2,2.1,327.8,-0.8,3.2,9.4
6.1,1.1,328.1,-1,2.4,29.2
4.6,0.3,329.1,4.8,4.4,-15.8
4.6,-0.3,329.1,1.2,1,-1.2
3.2,0,327.7,4.8,6.2,2.2
0.7,0,325.8,-0.2,-1.8,3.8
1.2,0.5,323.8,-1.4,-16.8,-9.2
1.2,0.7,320.8,4.6,2.8,0.2
2,0.9,319,0.4,-3.6,4.6
1.2,-0.2,317.5,-0.8,-2.2,2.8
1,-1.4,315.9,-1.4,-3.2,9
0.4,-2,315.1,-3.2,3.6,-3.2
0.6,-2,315.8,-2.8,-0.8,10.2
-0.1,-2.3,317.3,0,-2.6,1.8
0.1,-2.7,317,1,-4.4,8.8
0.9,-2.8,314.4,-2.6,3,-4.6
2.4,-2.9,309.7,-2.2,9.4,-6.8
3.4,-2.6,309.3,-7.4,11.8,0.4
5.5,-3.1,311,0,0,9.6
5.3,-4.2,314.3,-3.6,0,3.4
6.2,-5.6,318.6,-5.6,0.8,4.8
5.8,-6.1,330.3,-1.4,-1.8,10.4
6.8,-5.2,341.3,-0.6,1.6,-14.2
7.5,-5.3,346.7,2.4,-2,-0.8
8.9,-4.4,345.5,-2.6,-2.8,-4.2
9.2,-3.4,343.4,-1,-1.6,-3
10.1,-2.2,345.5,-1.8,-7.4,4.8
10.3,-1.3,346.4,1.4,1,-0.2
11.1,-1,346,3.8,-0.6,7.8
11,-0.3,344.6,0,-0.6,0.2
11,0.6,342.3,0,1,-8.6
10.7,-0.5,342.6,0.2,2.2,1.8
11.3,-1.5,345.8,-0.6,-6.4,-15.2
10.5,-1.5,349.7,-4,-3.8,-5.2
10.1,-0.9,353.4,-2.4,6.4,14.8
11.6,-0.8,358.8,5,-9.6,-7
9.7,-1.9,359.9,5.8,5.4,59.4
14.1,1.1,358.5,7,-10,28.2
11.1,0.8,356,-1.2,-7,-0.8
10.4,0.9,356.7,-8.2,3.4,-32.4
9.1,1.3,356.4,-0.4,-4.8,37
9.7,3.6,356.2,-0.4,28.4,28.2
11,2.9,355.8,5.2,3.2,19.6
17.3,4,356.4,-8,-46.2,0
20.8,4.7,356.6,-6.8,-69.4,12.2
9.2,3.7,356.1,2.6,-6.2,95.2
11.3,2.9,356.3,3.2,-22.2,-38.8
8.1,4.4,355.3,-3.8,-29.2,-2.8
5.8,2.9,352.9,-4.8,-9.6,-24
11.6,3.9,350.8,-21.4,-28.4,27
6.9,0.4,350.1,12,3.8,38.8
8.5,6.5,348.7,3.8,-4.8,-34.4
11.7,2.8,347.8,7.2,10.4,-69
14.8,2.9,347.3,3.6,60,-50.4
10.4,2.2,347.8,-5.2,-4.2,-6.4
6.9,2,347.6,0.2,-2.6,-4.6
10.2,2.5,348.4,-6,-23.4,-48.8
9.6,1.2,348.1,-2,-19,38.2
10.9,1.4,346.4,-3.4,26.4,-22.4
12.9,1.8,345.6,-3.2,-2,-37
9.4,-0.2,345.5,24.8,11.8,45
11.5,1.3,345.3,-9,-4,-37.6
6.5,1.1,345.2,-9.6,-9.8,35.4
9.1,2.1,345.6,-6.2,-46,7.8
7,1.7,346.3,6.4,8,2.2
6.4,2.3,345.1,-7.4,-11.2,-15.4
5.3,1.3,344.8,-0.6,2.2,1.4
7.4,0.2,344.5,-0.4,-5.8,-10.4
7.3,-0.5,344.9,-0.4,1.6,5.4
7.3,-1,346.3,2.6,4,-7
7.5,-0.6,346.8,-0.2,-6,10.6
7.5,0.3,346.2,-2.8,0.6,-5.2
7.8,0.2,346.9,-0.2,-0.8,-0.6
7.8,0.5,347.2,-1.8,-1.6,-1.4
7.7,0.3,347.1,-1,-17.8,-28.2
9.2,2,346.6,-5.4,-2.4,-12.6
8.1,1.5,346.3,-2.8,-0.2,0.6
10,0.8,346.4,-0.6,-12.2,-0.8
9.3,0.4,346.8,8.2,5,3.8
9.2,0.7,346.9,-1.8,-2.2,11
8.9,0.6,347.1,-0.4,-1.8,3.6
7.6,0.8,347.5,2.8,0,19.8
11.6,2,346.4,-2.4,-2,-42.2
9.7,1.8,345.3,0.2,-8.8,12.6
9,2,345.9,2.8,-0.8,7.6
9.2,2.8,346.1,4.2,16.8,-11.2
9.5,-0.3,344.3,0.2,-6.4,-4.6
10.1,-0.7,344.8,-4,-3,-5.8
9.2,-1.2,346,0.8,-3.4,13.4
10.4,-0.8,346.3,2.2,3.4,-17.8
10.5,0,346,0.2,-12.2,-2.8
8.8,1,346.3,0.6,4.6,10.8
9.4,0.7,346.2,0.8,-4,10.8
9.3,0.9,346,1,-1.2,10.6
10.1,1.4,345.4,-2.6,23.8,-44.6
15.7,0.8,345.5,7.8,-21.2,-54.8
9.1,4.2,345.3,-2,-48.4,47.4
10.8,0.5,345,8.6,-5,35.8
7.9,0.6,344.7,1,17.2,-10.6
8.6,3.6,343.9,-2.4,-20.4,-43.8
9.2,0.7,343.1,1,-15.2,12.2
12.1,2.4,342.5,-1.8,10,-64.2
11.7,0.5,342.9,-2.4,10.8,-81.8
4.9,0.1,343.3,2.6,3.2,-0.8
8.4,-1.1,343.8,-5,6,-54.8
8.8,-2.4,344.2,2.4,6.6,38
5.1,-2.5,344.5,-2.4,-3.8,-4.4
5.7,0.2,345.8,-4.2,14.4,-16
7.5,0.2,346.2,-2.8,-19,3.8
7.7,1,347.4,7.4,5.8,14.2
6.2,0.5,347.7,8,-2.8,42.4
8.2,1.6,346.7,-1.2,0.4,-10.2
6.7,0.5,346.6,-5,-14.8,33.6
6.7,1.8,347.4,-4,-12.2,-17
9.8,1,347.6,-3.6,-20.6,-25.8
6.9,1.7,347.8,-2.2,-13.8,2
5.1,1.3,347.7,3.8,2.6,9.4
6.4,1.3,346.9,-2.8,-8,-7.2
7.3,0.9,346.3,-0.8,-11.6,-12.4
6.7,0.7,345.9,-2.2,-10.4,11.6
5.8,0.9,346.2,-3.6,5.2,-7.4
4.4,0.9,346.8,-1,3.2,11.2
8.7,-0.3,349.2,0.6,3,-22
7.9,0.8,352.5,-6,-9.2,23.8
6.4,0.7,356.6,1.2,-26,43.8
9.2,1.1,358.1,10.2,-16.6,-3.2
12.1,4.1,354.7,1.8,-24,-47.4
8.5,7.6,352.3,4.2,-9.2,-19.8
7.5,8.7,348.1,2.6,14.2,6.6
10,10.6,343.3,4.2,22.2,-43.6
10.6,8.8,342.1,1.6,24,-54.8
0.5,8.9,341.7,-0.6,-32.4,32.6
2.3,19.3,341,8.2,9.2,-60.6
-0.6,15.7,335.7,-1,-28.2,-33.6
10.1,13.9,332.4,16.8,-18.2,137.4
5.1,11.4,328.8,14.2,114.6,39.8
-1.5,7.6,330.7,0.6,-11.6,41.6
-3.8,4.2,332.7,-2.2,-10.4,-117.2
3.5,2.1,335.8,-0.6,-5.2,76.2
-11.2,-1.2,340.9,-18.2,-4.8,-87
-5.4,-1.6,346.9,-4,-12,10.6
-5.5,-0.6,350.3,1.6,12.6,-38.6
0.2,2.3,349.7,-3.4,12.2,-49.2
2,2.1,348.5,0.4,-4.6,37.6
0.8,4,348.2,4,16.2,4.4
3,4.4,347,13.8,4.6,20
5.2,2.9,345.3,4.8,-1.4,15
5.5,2.9,344.6,-0.4,-1.4,19
4.8,1.7,346.6,3.8,19.2,3.6
6.5,1.6,348.9,-0.4,1,6.4
6.3,1.1,349.2,3,-3.6,10.2
8.2,2.5,349.3,-2.4,-5.6,-2.8
8.5,1.7,347.7,0,-11,1.8
10.3,1.7,346.6,-3.6,5.8,-38
7.1,0.7,346.7,4.4,6.8,39
9.2,0.4,347.7,-2.2,-3.6,8.6
9.2,-1,348.7,1.6,-11.4,1.2
8.1,-0.5,350.8,-3,8.4,23.8
9.1,0.4,355.6,0,2.2,-14.6
10.3,2.3,357.2,2.6,1.8,-12.2
10,3.4,356.5,4,0.2,-10.2
7.8,5.1,353.4,5.4,1.6,7.4
7.8,5.3,351.2,7.8,-0.2,4.8
7.8,4.4,346,1.8,5,21.8
7.4,4.1,343.6,0.2,44.6,10.6
8.6,2.3,344.7,-10,5.8,13.8
8.4,3,345.9,2.4,22,-32
7.6,2.1,347.4,0.4,-0.6,12
7,2,348,1.2,-7.4,-10.8
8.5,2.4,347.5,2.6,-11.2,3.8
9.4,0.9,347,2,-10.8,0.6
8.2,-0.6,347.1,-3.4,-28.2,-36.6
7.8,-0.7,347,6.8,4.4,62.2
6,-1.5,347.2,-3,-8.8,-31.8
10.4,-0.3,346.9,-1.2,19.2,83
9.9,-0.4,346.4,-4.4,-8.6,-66.4
5,-0.7,346.7,2.8,-22.6,68.6
5.3,-1.8,345.7,1.8,0.6,-23.4
4,-2.4,346.3,0.8,-24.8,-16.8
4.1,-0.5,346.3,-2.4,23.4,-49
1.3,-0.8,347.1,2.2,13.2,-63.8
6,-1.2,347.8,6.2,38.6,66
4.3,-0.9,349,-1.2,-20.4,-38.6
7.5,0.6,351,-3.6,-3.4,-61.4
8.5,2.7,352.5,0.4,3.4,-52.4
-0.8,4.2,352.4,2.6,19.8,84.2
0.7,5,347.4,11.4,17.4,74.2
5.2,4.1,345.7,-1.6,-6,17.8
2.1,4.8,344.9,-1.4,22,10.4
7,3.8,345.3,6.4,32.2,-19
9.2,3.4,345.2,3.4,-16.8,1.8
8,3.5,344.3,-2.6,3.2,5.6
7.7,3.4,344,5,4,4.4
6.2,2.6,341.9,2,-8.6,9
6.3,2.5,340.2,0.4,6.4,-7.4
9.4,1.5,338.5,0.8,0.8,15
7.6,-0.8,337.8,-6.4,-4.4,12
9.5,-1.3,338,-7.8,-7.6,-25
8.5,-2.7,339.4,-9,-4.2,-49.2
10.6,-3.3,340.1,-1,29.4,-3
11.1,-4.7,342.8,-2.4,29,-37.2
11.9,-5.2,344.9,-0.6,5.2,-58.4
5.3,-6.6,348.1,3.8,9,19.6
8.3,-6,352.2,4.4,7.6,-7.8
8.7,-4.8,355.7,1.4,-13.2,-7
8.8,-2.2,357.5,1.2,-20.2,23.8
8.2,1.9,357,5.4,0.8,22.2
10.8,5.9,354,-4.4,-11,-62.4
2.9,5.9,350.1,4.2,32,37.2
4.5,6.2,347.1,1.4,17.2,-4
4.6,4.1,344.2,8.2,-0.6,18.4
9.7,2.9,343.1,1,10,21.4
9.3,1.2,344.3,9.8,-5,-5
9.5,-0.3,345.8,-3.8,-15,7.8
10,-1.6,349.4,-1,-6.4,19.4
9.6,-1.1,352,-7.8,51.4,-37.4
12.6,-1.7,355.2,5.2,-5.6,-45.4
8.1,1.6,356.9,20,8.2,46
10.8,6.9,351.1,2.2,-8,-86.8
9.3,8,343.9,0.4,-27.4,57.8
0.5,4.5,338.5,-3.6,-20,-11.2
1.3,4,336.3,-3.8,37.2,33.6
-2.3,0.9,338.3,-5,-14,-22.4
-0.1,-0.9,341.6,-8.8,-6,-14
0.7,-2,347.7,-1.2,0.8,12
0.1,-1.4,349.5,-1.4,-8.2,14.8
3.9,-0.5,350.3,4.8,-1.6,-18
4.6,-1.2,348.6,7.8,-1.8,0.6
6.5,-0.1,347,-1.8,4,-10
7.2,0,347,1.2,3.2,22
6.7,1,347.2,-1.2,-19.8,20.4
5.6,0.3,347.4,-1.2,1,-7.4
6.2,1.2,347.6,-5.4,-0.8,4.8
8,1.4,347.9,-1,12.2,-32.4
9.7,0.9,348.1,2.2,3.6,0.6
10.5,1.1,347.3,-2.4,-23.6,8.2
11.3,0.9,348.3,-1.2,3.6,0.4
9.1,1.9,348.4,-6.4,-14,-9.2
8.4,2.3,348.3,-2.8,2.8,3.4
9.4,2.7,348.8,-0.2,19.2,35.4
12.4,3.3,348.6,-1.6,-1.2,-26.4
11.1,2.8,348.8,1.6,-19.6,17.8
10.4,2.8,348.2,5.4,-1.8,12
10.7,3.8,347.3,4.4,32.8,-1.6
11.8,3.4,346.9,-4,-4.8,-6
9.4,2.6,346.9,-1,-1.8,-8.6
10.9,2.9,345.6,-0.2,7.6,-19.4
10,2.1,344.9,1.8,-8.4,6.6
10.9,2.8,344.4,-4,8.8,-1.6
10.2,1.6,344,-1.6,-3,-0.2
10.5,0.6,344.1,2.2,2.4,-2.6
10.5,0.3,344.4,-3.8,1.6,-4.6
10.7,-1.3,345.8,8.8,11.8,15.6
9.6,-0.5,346.3,6.6,5.8,-4.2
9.7,0.2,345.4,-0.6,25.4,-35.6
10.7,-0.2,345.3,-1.6,13.2,6.8
8.5,0.4,345.4,0.8,-1,-21.2
8.4,0.7,345.8,-2.6,-5.4,-20
7,0.4,345.7,2.4,-9.2,20
9,1.4,345.5,5,26.6,-23
8.2,0.3,344.9,-0.2,5.4,11.2
8.7,0.2,344.1,-2.2,4,0.6
10,-0.3,344.4,-1,-2.2,-20.2
9.4,-0.6,345,0.4,8.6,3
8.2,-0.7,345.3,-1.6,-14.8,17.6
10.1,-0.5,346.1,0.2,-0.6,-9.2
9.2,-0.9,346.6,2.4,8.4,-4.4
9.7,-1.9,346.4,7,-8.2,-19
7,-1.1,346.8,-0.4,-1,31.4
7.9,-1.1,347.3,1.2,6.2,-4.2
5.8,0,347.4,-4,-1.2,26.8
5.7,-0.8,348.2,6.2,0,15.8
6.9,-0.4,349.1,-6.4,9.4,-13.8
7.5,0.5,349.5,-3.6,1.8,-16.2
6.5,0.3,350.2,4.4,-0.2,4.8
7.6,0.9,350,2,21.2,16.8
8.6,1.5,349.9,2.6,0,-8
9.2,0.8,350,0.6,-32.6,-3.8
8.1,2.2,349.9,1,20.2,-7.8
10.5,2.3,349.9,1.8,9,-23
8.7,2.8,349.5,-0.8,2.2,11.6
9.3,2.8,349.4,-2,1.8,-14.4
9.5,2.4,349.8,-0.4,-3.4,7.6
9.9,2.9,349.1,3.2,27.4,-6.4
8,2,348.7,5.2,-17.2,36.8
9.2,2.1,348.8,3.6,-8.8,4
8.6,2.2,348.7,1.2,-0.2,-13.4
7.8,0.8,349.1,-2.4,25.6,-5.8
5.8,0.6,349.1,-4.6,21,-17.2
9,0.9,349.1,-3,1.6,-25
10.1,1.3,348.6,7.8,26.2,85.2
7.6,2.5,347.3,-2.4,-20,-32.4
3.5,2.4,346.6,3.6,1.2,25.4
4.3,2,346.1,-1,-5,-6
4.5,1.9,345.4,0,16.4,5
4.5,1.5,345.6,-0.8,7,-4.8
5.8,1.2,345.5,3.4,-9.2,23.2
6.3,0.9,345.3,2.4,20,-6.8
6.9,1.2,345.6,-4.4,-14.8,32
5.1,1.3,344.5,-2.6,-20.2,-22
12.3,1.1,343.8,1.4,17,3.8
8.5,-0.3,343,0.2,-1.4,-4.2
9.4,-0.4,343,2,-4.4,-10
11.1,-0.2,343.6,-3.8,0.2,0.6
10.4,-1.9,344,-5.4,-3.4,-12.8
9.5,-2.5,344.9,1.4,0.2,1.2
7.2,-2.7,345.8,2.4,-6.2,-4.2
7.8,-2.2,346.3,0.6,-11.8,-4.2
8.2,-3.2,346.9,-1.2,0.6,2
6.9,-2.1,347.7,0.2,-8.2,6.4
7.3,-1.1,349.1,3.2,-3.2,-1.2
7.2,-1,350.1,2.2,0.6,-2.6
7.7,0.8,349.8,2.6,-1.4,18.2
7.5,0.9,349.2,-5.8,-6.6,-25.6
9.1,1.1,349.7,2.6,-2.6,12.8
10.6,0.8,349.7,5.6,-8,10.8
9.6,1.2,349.6,-5,-5.8,17.4
8.3,0.3,349.7,-1,-11.6,-20.6
8.7,1.3,349.7,-0.8,-9.8,17.2
9,2.8,350.1,-2,17.4,-11.8
8.8,2.4,349.8,-1.2,-10.6,-11.2
8.5,3.3,349.4,1.2,-0.2,9
7.1,3.2,349,1.6,4.4,5
8.2,3.7,347.8,-4.8,-4.2,-8.4
7.4,1.8,347.2,-1.8,-1.6,-21
7.9,1.1,347.7,-1.4,-5.2,6
7.5,0.7,348.5,1.6,-1.4,-8.6
8.5,2,348.2,-1.4,15.2,2.6
8.6,2,347.8,-2,-6.6,-14.6
8.8,2.1,347.7,-0.8,-3.4,-14
8.1,2,347.5,4.6,13.2,20.8
11.3,2.7,346.3,0.6,-11.4,4.2
8.3,1.3,346,-6,-0.8,28.4
7.8,1.1,346.5,3.6,7.6,20.8
8.7,0.2,346.6,-6.6,15,2.4
7.6,1.1,346.9,-1.2,16.4,-12.6
9.4,1.3,346.3,-6,-1.4,0.4
8.1,1.2,345.9,-4.2,-12.6,17
8.8,1.8,346,-1.4,-10.8,-12.6
6.1,0.9,345.9,1.6,16.6,19
6.6,-0.5,346,9.6,18.2,1.6
6,0.3,345.5,6.4,4.4,24.2
5.3,0.5,345.8,2.2,3,2.6
7.9,1.1,346.7,-3.2,-10.4,-3
8.1,0.5,346.9,-0.8,-2.8,4
7.9,0.8,347,-0.6,0.8,-8
7.1,0.8,347.6,-1.8,-7.4,6
7,0.2,348.1,5.6,12.6,-11
9.8,1.1,347.9,-5,0,-27.8
8.9,0,347.5,-0.8,-21.6,12
9.2,0.5,347.2,-2.2,3,7.8
8.3,0.7,347.5,3.4,7.4,-0.2
8.5,0.9,347.2,2,10,17.2
8.8,0.7,347,-0.2,7,5.4
8.7,0.3,347.1,5.2,-0.2,2.6
9.7,0.2,346.5,-4.2,3.2,-4
12,-2,347.2,-0.2,19.8,23.2
9.3,-3.2,349,10.4,-8,25.8
10.5,-2,350,-8.6,-13.6,-19.2
10.2,-1.4,351.2,-2.2,2.6,-2
9.5,-1.3,350.7,0.4,-22,0.4
8.2,-0.4,350.4,-2.6,-6.6,10.2
6.3,-0.3,350.7,-1.8,-1.8,15.2
7.3,1.1,350.7,-1.4,20.6,10.6
8.3,-0.3,350.7,7,-5.6,-4
6.5,-0.7,350.7,8,13.2,36.2
5.6,0,351.2,1.6,8.4,-4.6
7.1,1.7,351,-1.6,-3,36.2
8.4,2,350.5,0,0.8,-14.8
8.7,3,349.4,-5.4,-5.2,-32.2
8,2.4,349.4,3.6,15.4,-6.2
10.2,3.2,348.7,-0.8,-2.6,-22.4
7.4,1.6,347.9,2.4,8,7
9.5,1.4,347.4,3,10.2,-5
7.9,0.9,347.9,-3.2,-6.4,18.6
7.6,1.7,348.7,1.2,2.2,-9.2
7.7,0.6,349,4.4,0.2,-8.2
7.5,1.6,349.1,-2.6,-5.6,-17.8
7.3,1.1,349.1,4,-4.8,11
8.1,1.4,349.1,0.6,3,2.2
8.9,1.1,348.5,-3.6,-14.8,-12.4
9.4,0.6,347.1,1,2.2,-8
8.3,0.8,347.2,-3.2,30.6,-30.2
9.2,1.6,347.1,-7.6,9,-27.8
9.4,0.9,348.2,3.8,10.6,-14.2
9.4,-0.1,348.9,-1.2,-9.4,21.6
7.5,0.9,350.4,2.6,-4.8,-18
9.4,0.8,350.4,5.4,-3,-2.8
9.1,1.4,349.4,-3,4.6,-5.4
9.2,0.9,348.4,-6.2,-4,-23.8
9.9,0.7,348.4,0.2,7.8,-8.6
9.3,0.4,348.6,-1.4,0,-8.2
9,0.7,348.9,-5.6,-24.8,-2.4
10.4,2.5,349,-5,-3.8,-20.4
9.8,2.2,348.5,-3.6,-0.4,-1
8.5,2.1,348.4,3.4,14,-10.4
7.1,1.5,346.9,0.4,10.8,6.4
8.8,1.1,346.9,-2.8,-7.6,-13.8
7.1,-1,348.7,7.4,8.8,23.4
6.6,-0.8,349.2,0.4,11,20.4
8.6,-0.9,350.7,4,-5.2,9.4
6.1,-0.7,352,0.8,7.2,-13.8
7.6,0.4,352,2.2,-3.2,23.4
7.6,1.7,351.2,0,1,-16
6.7,2.4,349.8,0.6,5,11
6.1,1.9,348.4,-4.8,-20.6,-3.2
5.9,2.1,348.7,-6,-10.8,-19.4
7.2,2.1,348.6,1.8,2,22.8
5.9,1.8,349.1,-0.4,15.8,11.4
7,2.2,349.4,5,3.6,12.6
7.4,1.7,349,0.8,0.8,3.6
5.6,0.8,348.9,5.6,-7.2,3.2
4.4,1,348.3,2.4,-31.8,-3
4.4,1.4,348.3,-3.8,-4,1.2
5.9,1.2,348.2,-5.2,-17.6,-27.6
5.4,0.9,347.9,0.4,4.2,10.4
6.8,0.5,348.5,0.4,7.4,-14.4
8.4,1.3,349.6,-0.6,-5,10.6
6,1.1,349.8,0.8,8.8,-21.4
5.8,0.4,349,0.8,0,-1.8
6.8,1.2,348.6,-0.2,36.6,-27.8
8.4,1.3,347.9,8.2,5.4,29.8
6.2,0.4,348.2,0.4,2.2,-21.8
9.1,0.6,348.5,-4,16.6,-12.4
9,1.2,347.9,-5.4,-11.4,9
7.8,0.7,348.9,-0.6,-13.8,3.8
8.5,2,349.1,3.2,-10.4,-1.8
8.1,1.4,348.6,4.2,-4.4,20.2
6.6,0.9,348.4,-1.2,-1,-15.6
7.5,0,349,6.6,-16.4,38.4
7.7,-1.6,349.5,10.4,30.2,-0.2
8.2,0.2,349.3,2,-3.2,8.8
8.5,-0.1,349,4.6,1.2,6.8
9.2,0.3,349.3,-1.4,5.6,-4.2
10.2,0.3,349.6,0,7.6,-3.8
10.1,0.4,349.2,0.4,1,-3.4
10.1,0.7,348.7,-2,3.2,-6
8.9,0,348.1,-0.6,6.8,4.4
9.1,-0.6,348.7,-1.8,0.2,-13.6
7.7,-1.4,349.8,-0.8,-14.2,17.8
8.6,-0.7,350.3,-1.8,-11,-11.8
8.9,-0.3,351.2,-2.6,-8.4,-3.8
8.4,0.3,351.3,2.2,-4.6,18.2
8.8,1.2,351.5,0,8.6,-18
8.5,1.3,351,2.2,6.2,10
7.1,1.5,350.1,-0.2,-5.8,4.4
8.5,1.2,349.8,0.8,-8,-11
7.5,1.5,349.7,0.6,5.6,-10.2
7.2,0.6,350.1,2.4,-28.4,-8.2
6,1.1,351,4.8,-0.8,11.6
8.8,2.2,351.9,5.4,-9,-4.2
5.9,2.1,352.5,1.4,-6.6,14.2
6.9,2.4,351.9,2.4,10.4,-15.8
5.7,2.6,349.9,3.6,10.8,-3.2
9,2.6,348.5,2.6,7.8,-16.2
7.6,2.8,348.2,-4.2,-0.8,-3.4
7.7,2.1,347.6,-1.4,12,-8.4
6.5,0.9,348.4,4.2,-2.2,27.8
7.4,0.6,348.6,-2,-6,-13.6
8.6,0.3,349.2,1.8,4.8,21.8
9.8,1.5,349.4,3.4,11.2,-9
11.4,1.1,348.6,3.2,-4.4,9.8
9.9,0.6,347.4,-6.4,-5.2,-9.6
8.9,0.8,347.4,1,-6.6,19.2
7.2,0,348.2,4.6,11.6,5.4
11.4,-0.2,348.7,-1,-6.6,-41.8
7.3,-0.4,348.2,2.4,-1.6,43.8
8,-0.2,347.9,-2.2,4.6,-18.8
8.7,-0.1,348.2,-5.8,-2.6,-22.6
7.8,-0.5,348.1,-1.8,-1.2,-37.4
6.9,-2.5,348.9,3,4.8,-7.8
6,-2.4,350.3,-4,1.8,-9.2
6.5,-2.8,352.4,-3,7.8,-31.8
0.1,-3.2,354.9,6.8,41.4,82.8
5.1,-3,355.7,5.2,-0.6,-42
